DateTime,PhoneAccelerometerX,PhoneAccelerometerY,PhoneAccelerometerZ,Distracted
06/01/202101:23:08.100,-0.56451416015625,0.213226318359375,-0.80291748046875,0.0
06/01/202101:23:08.108,-0.564422607421875,0.2134246826171875,-0.8049468994140625,0.0
06/01/202101:23:08.118,-0.5649871826171875,0.213653564453125,-0.803253173828125,0.0
06/01/202101:23:08.128,-0.5659637451171875,0.21380615234375,-0.8023223876953125,0.0
06/01/202101:23:08.138,-0.5657196044921875,0.2137603759765625,-0.802154541015625,0.0
06/01/202101:23:08.162,-0.565399169921875,0.2147979736328125,-0.8029632568359375,0.0
06/01/202101:23:08.167,-0.5653228759765625,0.2142333984375,-0.8040618896484375,0.0
06/01/202101:23:08.178,-0.5647430419921875,0.214019775390625,-0.8036956787109375,0.0
06/01/202101:23:08.187,-0.56512451171875,0.2140045166015625,-0.80291748046875,0.0
06/01/202101:23:08.197,-0.56439208984375,0.2115020751953125,-0.8015289306640625,0.0
06/01/202101:23:08.223,-0.56427001953125,0.2113800048828125,-0.801422119140625,0.0
06/01/202101:23:08.224,-0.564544677734375,0.2103729248046875,-0.80291748046875,0.0
06/01/202101:23:08.227,-0.5645751953125,0.20831298828125,-0.80389404296875,0.0
06/01/202101:23:08.238,-0.5646514892578125,0.209228515625,-0.803863525390625,0.0
06/01/202101:23:08.247,-0.565826416015625,0.21002197265625,-0.8042755126953125,0.0
06/01/202101:23:08.257,-0.565399169921875,0.2106475830078125,-0.802337646484375,0.0
06/01/202101:23:08.282,-0.565460205078125,0.2110595703125,-0.8026885986328125,0.0
06/01/202101:23:08.288,-0.5634307861328125,0.2117919921875,-0.8024749755859375,0.0
06/01/202101:23:08.297,-0.5641021728515625,0.2099609375,-0.803985595703125,0.0
06/01/202101:23:08.307,-0.5654296875,0.209564208984375,-0.802520751953125,0.0
06/01/202101:23:08.318,-0.567962646484375,0.209930419921875,-0.8023834228515625,0.0
06/01/202101:23:08.342,-0.5687255859375,0.2104034423828125,-0.8019561767578125,0.0
06/01/202101:23:08.347,-0.5661468505859375,0.212921142578125,-0.8014984130859375,0.0
06/01/202101:23:08.357,-0.5654296875,0.2123565673828125,-0.8025054931640625,0.0
06/01/202101:23:08.368,-0.5643463134765625,0.2127685546875,-0.801239013671875,0.0
06/01/202101:23:08.377,-0.5640869140625,0.2113189697265625,-0.80230712890625,0.0
06/01/202101:23:08.406,-0.5640869140625,0.2110443115234375,-0.8039398193359375,0.0
06/01/202101:23:08.407,-0.5628814697265625,0.2123565673828125,-0.8062286376953125,0.0
06/01/202101:23:08.418,-0.5625457763671875,0.2128143310546875,-0.8052520751953125,0.0
06/01/202101:23:08.427,-0.561767578125,0.2135162353515625,-0.805419921875,0.0
06/01/202101:23:08.437,-0.5616302490234375,0.2137908935546875,-0.8037567138671875,0.0
06/01/202101:23:08.459,-0.56170654296875,0.213775634765625,-0.8040924072265625,0.0
06/01/202101:23:08.460,-0.56304931640625,0.2139892578125,-0.804779052734375,0.0
06/01/202101:23:08.468,-0.5634613037109375,0.215576171875,-0.8040313720703125,0.0
06/01/202101:23:08.477,-0.565032958984375,0.21478271484375,-0.8036651611328125,0.0
06/01/202101:23:08.487,-0.565155029296875,0.214202880859375,-0.8026885986328125,0.0
06/01/202101:23:08.497,-0.5646820068359375,0.2136077880859375,-0.8037109375,0.0
06/01/202101:23:08.522,-0.565582275390625,0.212127685546875,-0.8039093017578125,0.0
06/01/202101:23:08.527,-0.5680084228515625,0.21240234375,-0.80364990234375,0.0
06/01/202101:23:08.538,-0.5679168701171875,0.2126922607421875,-0.8023681640625,0.0
06/01/202101:23:08.547,-0.5673675537109375,0.2124176025390625,-0.8023834228515625,0.0
06/01/202101:23:08.558,-0.5669708251953125,0.21075439453125,-0.8016815185546875,0.0
06/01/202101:23:08.584,-0.5656585693359375,0.210418701171875,-0.801239013671875,0.0
06/01/202101:23:08.587,-0.5645751953125,0.2091217041015625,-0.8033447265625,0.0
06/01/202101:23:08.597,-0.5657958984375,0.21002197265625,-0.80389404296875,0.0
06/01/202101:23:08.608,-0.564666748046875,0.210357666015625,-0.8036346435546875,0.0
06/01/202101:23:08.618,-0.5643310546875,0.2107391357421875,-0.8048095703125,0.0
06/01/202101:23:08.641,-0.5643463134765625,0.21173095703125,-0.8042755126953125,0.0
06/01/202101:23:08.642,-0.5635528564453125,0.2131805419921875,-0.8039093017578125,0.0
06/01/202101:23:08.647,-0.563507080078125,0.214569091796875,-0.8025360107421875,0.0
06/01/202101:23:08.658,-0.5642547607421875,0.2144317626953125,-0.8012847900390625,0.0
06/01/202101:23:08.668,-0.56414794921875,0.21356201171875,-0.801239013671875,0.0
06/01/202101:23:08.677,-0.564910888671875,0.2121124267578125,-0.802825927734375,0.0
06/01/202101:23:08.704,-0.56549072265625,0.21160888671875,-0.8041534423828125,0.0
06/01/202101:23:08.705,-0.566558837890625,0.21124267578125,-0.80670166015625,0.0
06/01/202101:23:08.707,-0.566802978515625,0.2103424072265625,-0.8077850341796875,0.0
06/01/202101:23:08.718,-0.5650634765625,0.2108612060546875,-0.8069305419921875,0.0
06/01/202101:23:08.728,-0.561370849609375,0.211395263671875,-0.8052825927734375,0.0
06/01/202101:23:08.737,-0.5606689453125,0.212310791015625,-0.8042755126953125,0.0
06/01/202101:23:08.762,-0.5618743896484375,0.2122039794921875,-0.8043670654296875,0.0
06/01/202101:23:08.767,-0.5628662109375,0.2104644775390625,-0.8027496337890625,0.0
06/01/202101:23:08.777,-0.5640411376953125,0.2103271484375,-0.8025360107421875,0.0
06/01/202101:23:08.788,-0.5655975341796875,0.2114410400390625,-0.8023223876953125,0.0
06/01/202101:23:08.797,-0.566680908203125,0.2110748291015625,-0.8031005859375,0.0
06/01/202101:23:08.820,-0.5670318603515625,0.2122955322265625,-0.8027191162109375,0.0
06/01/202101:23:08.827,-0.564544677734375,0.2136993408203125,-0.801239013671875,0.0
06/01/202101:23:08.838,-0.5647735595703125,0.214019775390625,-0.8010406494140625,0.0
06/01/202101:23:08.847,-0.566375732421875,0.2151336669921875,-0.8018341064453125,0.0
06/01/202101:23:08.857,-0.56744384765625,0.2141571044921875,-0.802032470703125,0.0
06/01/202101:23:08.883,-0.568328857421875,0.2144775390625,-0.804656982421875,0.0
06/01/202101:23:08.887,-0.5671539306640625,0.2152557373046875,-0.803436279296875,0.0
06/01/202101:23:08.897,-0.5654754638671875,0.2147216796875,-0.801727294921875,0.0
06/01/202101:23:08.907,-0.5647430419921875,0.213897705078125,-0.8001708984375,0.0
06/01/202101:23:08.917,-0.564300537109375,0.2115325927734375,-0.7993621826171875,0.0
06/01/202101:23:08.941,-0.5635986328125,0.21044921875,-0.80133056640625,0.0
06/01/202101:23:08.947,-0.5645904541015625,0.2091064453125,-0.80419921875,0.0
06/01/202101:23:08.957,-0.564300537109375,0.2105255126953125,-0.8044891357421875,0.0
06/01/202101:23:08.967,-0.5651702880859375,0.2110443115234375,-0.8043670654296875,0.0
06/01/202101:23:08.977,-0.5655517578125,0.2113494873046875,-0.8053741455078125,0.0
06/01/202101:23:09.004,-0.5648345947265625,0.2114410400390625,-0.8050994873046875,0.0
06/01/202101:23:09.007,-0.5625152587890625,0.210296630859375,-0.80352783203125,0.0
06/01/202101:23:09.018,-0.5626678466796875,0.2104034423828125,-0.8034515380859375,0.0
06/01/202101:23:09.027,-0.5633087158203125,0.210235595703125,-0.8030548095703125,0.0
06/01/202101:23:09.037,-0.5648040771484375,0.2099456787109375,-0.803466796875,0.0
06/01/202101:23:09.062,-0.56536865234375,0.211639404296875,-0.8035125732421875,0.0
06/01/202101:23:09.067,-0.56463623046875,0.2121429443359375,-0.803375244140625,0.0
06/01/202101:23:09.077,-0.563995361328125,0.2119140625,-0.8048248291015625,0.0
06/01/202101:23:09.087,-0.56365966796875,0.21173095703125,-0.8046875,0.0
06/01/202101:23:09.097,-0.564483642578125,0.2129058837890625,-0.8034210205078125,0.0
06/01/202101:23:09.120,-0.5641326904296875,0.2129364013671875,-0.8054656982421875,0.0
06/01/202101:23:09.121,-0.5648956298828125,0.212738037109375,-0.8040924072265625,0.0
06/01/202101:23:09.127,-0.5656890869140625,0.215240478515625,-0.803680419921875,0.0
06/01/202101:23:09.137,-0.5655059814453125,0.2145233154296875,-0.8028411865234375,0.0
06/01/202101:23:09.147,-0.56500244140625,0.21368408203125,-0.8016510009765625,0.0
06/01/202101:23:09.157,-0.56414794921875,0.2131805419921875,-0.80194091796875,0.0
06/01/202101:23:09.183,-0.563720703125,0.212493896484375,-0.8028564453125,0.0
06/01/202101:23:09.187,-0.565093994140625,0.2134246826171875,-0.803070068359375,0.0
06/01/202101:23:09.197,-0.5652313232421875,0.214080810546875,-0.80267333984375,0.0
06/01/202101:23:09.207,-0.5652618408203125,0.2138214111328125,-0.8027801513671875,0.0
06/01/202101:23:09.217,-0.5634765625,0.21441650390625,-0.8021392822265625,0.0
06/01/202101:23:09.241,-0.5628509521484375,0.2123565673828125,-0.8030242919921875,0.0
06/01/202101:23:09.242,-0.563385009765625,0.211151123046875,-0.803558349609375,0.0
06/01/202101:23:09.247,-0.5627288818359375,0.2117767333984375,-0.803680419921875,0.0
06/01/202101:23:09.257,-0.5629119873046875,0.2119598388671875,-0.8045654296875,0.0
06/01/202101:23:09.267,-0.5630035400390625,0.21307373046875,-0.8048095703125,0.0
06/01/202101:23:09.277,-0.563568115234375,0.213531494140625,-0.8058013916015625,0.0
06/01/202101:23:09.300,-0.5628204345703125,0.21270751953125,-0.8056793212890625,0.0
06/01/202101:23:09.307,-0.5617523193359375,0.2123870849609375,-0.805023193359375,0.0
06/01/202101:23:09.317,-0.5617828369140625,0.21246337890625,-0.80572509765625,0.0
06/01/202101:23:09.327,-0.56182861328125,0.213775634765625,-0.8037872314453125,0.0
06/01/202101:23:09.337,-0.5613250732421875,0.2140045166015625,-0.8035736083984375,0.0
06/01/202101:23:09.359,-0.5619964599609375,0.2149810791015625,-0.8031463623046875,0.0
06/01/202101:23:09.367,-0.56317138671875,0.2140045166015625,-0.8041839599609375,0.0
06/01/202101:23:09.377,-0.5643768310546875,0.21337890625,-0.804656982421875,0.0
06/01/202101:23:09.387,-0.5658416748046875,0.214080810546875,-0.8049468994140625,0.0
06/01/202101:23:09.397,-0.566192626953125,0.2126007080078125,-0.804931640625,0.0
06/01/202101:23:09.422,-0.56707763671875,0.21368408203125,-0.8054351806640625,0.0
06/01/202101:23:09.423,-0.5670928955078125,0.21307373046875,-0.8055877685546875,0.0
06/01/202101:23:09.427,-0.5667877197265625,0.2114105224609375,-0.8027801513671875,0.0
06/01/202101:23:09.437,-0.5657958984375,0.2105255126953125,-0.801849365234375,0.0
06/01/202101:23:09.447,-0.5661773681640625,0.2096405029296875,-0.8018341064453125,0.0
06/01/202101:23:09.457,-0.56512451171875,0.2106781005859375,-0.80072021484375,0.0
06/01/202101:23:09.484,-0.5666046142578125,0.2115936279296875,-0.8008270263671875,0.0
06/01/202101:23:09.487,-0.5676116943359375,0.2129058837890625,-0.8004150390625,0.0
06/01/202101:23:09.497,-0.5679779052734375,0.213653564453125,-0.8007965087890625,0.0
06/01/202101:23:09.507,-0.569000244140625,0.2139129638671875,-0.8015289306640625,0.0
06/01/202101:23:09.517,-0.567535400390625,0.213897705078125,-0.8018951416015625,0.0
06/01/202101:23:09.544,-0.5663909912109375,0.2161102294921875,-0.802459716796875,0.0
06/01/202101:23:09.547,-0.564910888671875,0.2155914306640625,-0.8017425537109375,0.0
06/01/202101:23:09.557,-0.5645751953125,0.216461181640625,-0.8016357421875,0.0
06/01/202101:23:09.567,-0.56451416015625,0.2157135009765625,-0.802093505859375,0.0
06/01/202101:23:09.577,-0.56402587890625,0.2155303955078125,-0.804351806640625,0.0
06/01/202101:23:09.600,-0.5630035400390625,0.215576171875,-0.80474853515625,0.0
06/01/202101:23:09.601,-0.56201171875,0.2150726318359375,-0.8055877685546875,0.0
06/01/202101:23:09.607,-0.5609283447265625,0.2147674560546875,-0.8053131103515625,0.0
06/01/202101:23:09.617,-0.55950927734375,0.2136993408203125,-0.80426025390625,0.0
06/01/202101:23:09.627,-0.5588836669921875,0.21307373046875,-0.80322265625,0.0
06/01/202101:23:09.637,-0.55950927734375,0.211883544921875,-0.80438232421875,0.0
06/01/202101:23:09.665,-0.558563232421875,0.21026611328125,-0.806182861328125,0.0
06/01/202101:23:09.666,-0.5601654052734375,0.2099609375,-0.8070220947265625,0.0
06/01/202101:23:09.667,-0.560821533203125,0.2105712890625,-0.8062286376953125,0.0
06/01/202101:23:09.677,-0.5630035400390625,0.2117767333984375,-0.806915283203125,0.0
06/01/202101:23:09.687,-0.562652587890625,0.21221923828125,-0.805816650390625,0.0
06/01/202101:23:09.697,-0.5630950927734375,0.212188720703125,-0.8043365478515625,0.0
06/01/202101:23:09.723,-0.5630035400390625,0.21148681640625,-0.8032684326171875,0.0
06/01/202101:23:09.726,-0.5632171630859375,0.2097015380859375,-0.8016510009765625,0.0
06/01/202101:23:09.737,-0.563934326171875,0.20941162109375,-0.803192138671875,0.0
06/01/202101:23:09.747,-0.564849853515625,0.210479736328125,-0.802978515625,0.0
06/01/202101:23:09.757,-0.5660247802734375,0.2113800048828125,-0.8034210205078125,0.0
06/01/202101:23:09.780,-0.5677947998046875,0.2137298583984375,-0.8035736083984375,0.0
06/01/202101:23:09.787,-0.565673828125,0.2132720947265625,-0.8028564453125,0.0
06/01/202101:23:09.797,-0.566070556640625,0.2133026123046875,-0.802093505859375,0.0
06/01/202101:23:09.807,-0.5653076171875,0.2137908935546875,-0.8012237548828125,0.0
06/01/202101:23:09.817,-0.5651702880859375,0.214385986328125,-0.8016510009765625,0.0
06/01/202101:23:09.842,-0.565765380859375,0.2149658203125,-0.802886962890625,0.0
06/01/202101:23:09.843,-0.5661163330078125,0.2151031494140625,-0.8028106689453125,0.0
06/01/202101:23:09.846,-0.5669403076171875,0.2149505615234375,-0.80322265625,0.0
06/01/202101:23:09.857,-0.56622314453125,0.2160186767578125,-0.8043365478515625,0.0
06/01/202101:23:09.867,-0.5665283203125,0.215484619140625,-0.802459716796875,0.0
06/01/202101:23:09.876,-0.565826416015625,0.215728759765625,-0.801727294921875,0.0
06/01/202101:23:09.904,-0.56585693359375,0.2153167724609375,-0.80108642578125,0.0
06/01/202101:23:09.906,-0.5655670166015625,0.2122802734375,-0.80218505859375,0.0
06/01/202101:23:09.917,-0.56561279296875,0.2124176025390625,-0.8019256591796875,0.0
06/01/202101:23:09.926,-0.5660400390625,0.2114410400390625,-0.804351806640625,0.0
06/01/202101:23:09.937,-0.565673828125,0.211822509765625,-0.8046722412109375,0.0
06/01/202101:23:09.960,-0.5658416748046875,0.21240234375,-0.804840087890625,0.0
06/01/202101:23:09.961,-0.564361572265625,0.211090087890625,-0.8043212890625,0.0
06/01/202101:23:09.967,-0.5628814697265625,0.210540771484375,-0.8035430908203125,0.0
06/01/202101:23:09.977,-0.56158447265625,0.2109375,-0.8037109375,0.0
06/01/202101:23:09.986,-0.5610809326171875,0.21185302734375,-0.804351806640625,0.0
06/01/202101:23:09.997,-0.561431884765625,0.2105865478515625,-0.8045501708984375,0.0
06/01/202101:23:10.024,-0.5611724853515625,0.2108917236328125,-0.804718017578125,0.0
06/01/202101:23:10.026,-0.561126708984375,0.211334228515625,-0.8042755126953125,0.0
06/01/202101:23:10.037,-0.559844970703125,0.212432861328125,-0.8040771484375,0.0
06/01/202101:23:10.046,-0.5593109130859375,0.2130279541015625,-0.802703857421875,0.0
06/01/202101:23:10.057,-0.5595855712890625,0.2141265869140625,-0.802490234375,0.0
06/01/202101:23:10.083,-0.56036376953125,0.2142791748046875,-0.8034820556640625,0.0
06/01/202101:23:10.086,-0.56512451171875,0.21234130859375,-0.80535888671875,0.0
06/01/202101:23:10.097,-0.5671234130859375,0.2121734619140625,-0.80657958984375,0.0
06/01/202101:23:10.106,-0.5667724609375,0.21173095703125,-0.8069610595703125,0.0
06/01/202101:23:10.116,-0.5684051513671875,0.2135009765625,-0.8064727783203125,0.0
06/01/202101:23:10.139,-0.5688629150390625,0.21258544921875,-0.8038482666015625,0.0
06/01/202101:23:10.140,-0.5679931640625,0.211578369140625,-0.802398681640625,0.0
06/01/202101:23:10.146,-0.5677337646484375,0.2129058837890625,-0.8023681640625,0.0
06/01/202101:23:10.157,-0.5689544677734375,0.2148895263671875,-0.8001251220703125,0.0
06/01/202101:23:10.166,-0.569610595703125,0.21478271484375,-0.7996978759765625,0.0
06/01/202101:23:10.176,-0.570709228515625,0.214508056640625,-0.800628662109375,0.0
06/01/202101:23:10.202,-0.5716705322265625,0.214019775390625,-0.8008575439453125,0.0
06/01/202101:23:10.206,-0.5727691650390625,0.216552734375,-0.7998199462890625,0.0
06/01/202101:23:10.217,-0.57061767578125,0.2152862548828125,-0.8000335693359375,0.0
06/01/202101:23:10.226,-0.5683441162109375,0.215362548828125,-0.798919677734375,0.0
06/01/202101:23:10.236,-0.56671142578125,0.21343994140625,-0.798797607421875,0.0
06/01/202101:23:10.260,-0.5646514892578125,0.2125396728515625,-0.800628662109375,0.0
06/01/202101:23:10.266,-0.5647430419921875,0.2139434814453125,-0.80242919921875,0.0
06/01/202101:23:10.276,-0.5633544921875,0.2159271240234375,-0.803924560546875,0.0
06/01/202101:23:10.286,-0.56268310546875,0.215423583984375,-0.8062591552734375,0.0
06/01/202101:23:10.296,-0.5626220703125,0.2149200439453125,-0.805572509765625,0.0
06/01/202101:23:10.322,-0.562103271484375,0.2147369384765625,-0.8058624267578125,0.0
06/01/202101:23:10.326,-0.5615081787109375,0.2107391357421875,-0.8035736083984375,0.0
06/01/202101:23:10.336,-0.56048583984375,0.208587646484375,-0.8034515380859375,0.0
06/01/202101:23:10.346,-0.5597076416015625,0.209197998046875,-0.8045501708984375,0.0
06/01/202101:23:10.356,-0.5592498779296875,0.2088165283203125,-0.804840087890625,0.0
06/01/202101:23:10.384,-0.55908203125,0.2105255126953125,-0.8057403564453125,0.0
06/01/202101:23:10.386,-0.5615692138671875,0.21295166015625,-0.8054046630859375,0.0
06/01/202101:23:10.396,-0.561431884765625,0.213104248046875,-0.8045806884765625,0.0
06/01/202101:23:10.407,-0.561614990234375,0.213165283203125,-0.8044281005859375,0.0
06/01/202101:23:10.416,-0.5606842041015625,0.2123260498046875,-0.804779052734375,0.0
06/01/202101:23:10.441,-0.561126708984375,0.211029052734375,-0.8058624267578125,0.0
06/01/202101:23:10.446,-0.5637664794921875,0.2101898193359375,-0.804443359375,0.0
06/01/202101:23:10.456,-0.5656280517578125,0.210906982421875,-0.8036956787109375,0.0
06/01/202101:23:10.466,-0.5668182373046875,0.211456298828125,-0.802581787109375,0.0
06/01/202101:23:10.476,-0.567047119140625,0.21258544921875,-0.8020172119140625,0.0
06/01/202101:23:10.501,-0.5675048828125,0.213165283203125,-0.8023681640625,0.0
06/01/202101:23:10.506,-0.5657501220703125,0.214508056640625,-0.801177978515625,0.0
06/01/202101:23:10.516,-0.5650634765625,0.2132720947265625,-0.8007049560546875,0.0
06/01/202101:23:10.526,-0.5668792724609375,0.2137451171875,-0.80120849609375,0.0
06/01/202101:23:10.536,-0.56640625,0.214874267578125,-0.8014068603515625,0.0
06/01/202101:23:10.566,-0.566925048828125,0.2155609130859375,-0.8011932373046875,0.0
06/01/202101:23:10.576,-0.5684661865234375,0.216644287109375,-0.8076934814453125,0.0
06/01/202101:23:10.587,-0.56866455078125,0.2158355712890625,-0.8055877685546875,0.0
06/01/202101:23:10.596,-0.569122314453125,0.216400146484375,-0.8042144775390625,0.0
06/01/202101:23:10.621,-0.5693817138671875,0.2155609130859375,-0.8016510009765625,0.0
06/01/202101:23:10.626,-0.5639495849609375,0.2136688232421875,-0.7975311279296875,0.0
06/01/202101:23:10.636,-0.5634918212890625,0.212493896484375,-0.7983551025390625,0.0
06/01/202101:23:10.646,-0.563323974609375,0.212982177734375,-0.8005523681640625,0.0
06/01/202101:23:10.656,-0.561920166015625,0.213714599609375,-0.800628662109375,0.0
06/01/202101:23:10.682,-0.5610809326171875,0.213714599609375,-0.8023834228515625,0.0
06/01/202101:23:10.683,-0.55975341796875,0.215057373046875,-0.8055877685546875,0.0
06/01/202101:23:10.686,-0.5607147216796875,0.21337890625,-0.8081817626953125,0.0
06/01/202101:23:10.696,-0.561370849609375,0.2107086181640625,-0.8115386962890625,0.0
06/01/202101:23:10.706,-0.563690185546875,0.21038818359375,-0.8124542236328125,0.0
06/01/202101:23:10.716,-0.5642547607421875,0.209747314453125,-0.8105010986328125,0.0
06/01/202101:23:10.744,-0.56396484375,0.2112884521484375,-0.80816650390625,0.0
06/01/202101:23:10.746,-0.5565643310546875,0.211578369140625,-0.80291748046875,0.0
06/01/202101:23:10.756,-0.5549774169921875,0.2135467529296875,-0.8018951416015625,0.0
06/01/202101:23:10.766,-0.5539398193359375,0.2151641845703125,-0.8020172119140625,0.0
06/01/202101:23:10.776,-0.555389404296875,0.2162933349609375,-0.8025970458984375,0.0
06/01/202101:23:10.799,-0.5603485107421875,0.2185516357421875,-0.805511474609375,0.0
06/01/202101:23:10.806,-0.5682830810546875,0.214996337890625,-0.80914306640625,0.0
06/01/202101:23:10.816,-0.5695343017578125,0.2120208740234375,-0.8121185302734375,0.0
06/01/202101:23:10.826,-0.5679168701171875,0.2097625732421875,-0.8102569580078125,0.0
06/01/202101:23:10.836,-0.5661163330078125,0.21112060546875,-0.8061676025390625,0.0
06/01/202101:23:10.866,-0.5631561279296875,0.2120819091796875,-0.801513671875,0.0
06/01/202101:23:10.876,-0.5624542236328125,0.2145538330078125,-0.7984619140625,0.0
06/01/202101:23:10.886,-0.5657501220703125,0.215118408203125,-0.799591064453125,0.0
06/01/202101:23:10.896,-0.5696868896484375,0.215362548828125,-0.799835205078125,0.0
06/01/202101:23:10.924,-0.5719757080078125,0.2169952392578125,-0.800506591796875,0.0
06/01/202101:23:10.926,-0.5735626220703125,0.219635009765625,-0.80206298828125,0.0
06/01/202101:23:10.936,-0.5702362060546875,0.2217559814453125,-0.7998809814453125,0.0
06/01/202101:23:10.946,-0.5662994384765625,0.2216644287109375,-0.797088623046875,0.0
06/01/202101:23:10.956,-0.5638275146484375,0.2193756103515625,-0.794677734375,0.0
06/01/202101:23:10.982,-0.5626068115234375,0.21795654296875,-0.794219970703125,0.0
06/01/202101:23:10.983,-0.56298828125,0.2185211181640625,-0.7957305908203125,0.0
06/01/202101:23:10.986,-0.5647430419921875,0.2180633544921875,-0.8004913330078125,0.0
06/01/202101:23:10.996,-0.5682373046875,0.2158966064453125,-0.80255126953125,0.0
06/01/202101:23:11.006,-0.567474365234375,0.220794677734375,-0.8070526123046875,0.0
06/01/202101:23:11.016,-0.5655670166015625,0.2234649658203125,-0.8071136474609375,0.0
06/01/202101:23:11.044,-0.56451416015625,0.220794677734375,-0.806488037109375,0.0
06/01/202101:23:11.045,-0.5595703125,0.2136383056640625,-0.80511474609375,0.0
06/01/202101:23:11.056,-0.55902099609375,0.20904541015625,-0.803863525390625,0.0
06/01/202101:23:11.066,-0.5553436279296875,0.2054290771484375,-0.8046875,0.0
06/01/202101:23:11.076,-0.551727294921875,0.204681396484375,-0.8055267333984375,0.0
06/01/202101:23:11.101,-0.5524444580078125,0.2064208984375,-0.804840087890625,0.0
06/01/202101:23:11.106,-0.5594024658203125,0.2106475830078125,-0.8064117431640625,0.0
06/01/202101:23:11.116,-0.5601806640625,0.2131805419921875,-0.803924560546875,0.0
06/01/202101:23:11.126,-0.56268310546875,0.21307373046875,-0.805145263671875,0.0
06/01/202101:23:11.136,-0.563201904296875,0.21026611328125,-0.8035125732421875,0.0
06/01/202101:23:11.163,-0.56121826171875,0.20947265625,-0.8021240234375,0.0
06/01/202101:23:11.165,-0.563201904296875,0.2152862548828125,-0.80523681640625,0.0
06/01/202101:23:11.176,-0.5639190673828125,0.2169952392578125,-0.802276611328125,0.0
06/01/202101:23:11.185,-0.5652923583984375,0.216278076171875,-0.8026275634765625,0.0
06/01/202101:23:11.195,-0.5675048828125,0.2140960693359375,-0.8037872314453125,0.0
06/01/202101:23:11.222,-0.56884765625,0.2138671875,-0.8026275634765625,0.0
06/01/202101:23:11.225,-0.573089599609375,0.2140350341796875,-0.80352783203125,0.0
06/01/202101:23:11.236,-0.5742950439453125,0.2159271240234375,-0.802703857421875,0.0
06/01/202101:23:11.245,-0.5752716064453125,0.217926025390625,-0.800628662109375,0.0
06/01/202101:23:11.255,-0.574310302734375,0.216339111328125,-0.797698974609375,0.0
06/01/202101:23:11.280,-0.5734710693359375,0.2158355712890625,-0.7957611083984375,0.0
06/01/202101:23:11.281,-0.573516845703125,0.2137298583984375,-0.795745849609375,0.0
06/01/202101:23:11.286,-0.571746826171875,0.213043212890625,-0.796722412109375,0.0
06/01/202101:23:11.295,-0.5706939697265625,0.2126922607421875,-0.7969818115234375,0.0
06/01/202101:23:11.305,-0.570098876953125,0.214019775390625,-0.798126220703125,0.0
06/01/202101:23:11.316,-0.5700836181640625,0.215087890625,-0.798553466796875,0.0
06/01/202101:23:11.340,-0.5704498291015625,0.21527099609375,-0.79931640625,0.0
06/01/202101:23:11.345,-0.570587158203125,0.2127532958984375,-0.79986572265625,0.0
06/01/202101:23:11.355,-0.5698394775390625,0.21307373046875,-0.800689697265625,0.0
06/01/202101:23:11.366,-0.567352294921875,0.2137298583984375,-0.8009490966796875,0.0
06/01/202101:23:11.375,-0.565521240234375,0.21539306640625,-0.800537109375,0.0
06/01/202101:23:11.400,-0.5626678466796875,0.2143707275390625,-0.801788330078125,0.0
06/01/202101:23:11.406,-0.5600738525390625,0.213104248046875,-0.8047332763671875,0.0
06/01/202101:23:11.415,-0.56103515625,0.2124786376953125,-0.8077239990234375,0.0
06/01/202101:23:11.426,-0.55963134765625,0.213775634765625,-0.8080291748046875,0.0
06/01/202101:23:11.436,-0.5582733154296875,0.2145843505859375,-0.80810546875,0.0
06/01/202101:23:11.461,-0.5568084716796875,0.2134552001953125,-0.808624267578125,0.0
06/01/202101:23:11.465,-0.55694580078125,0.2115020751953125,-0.807769775390625,0.0
06/01/202101:23:11.476,-0.5580291748046875,0.212127685546875,-0.8049468994140625,0.0
06/01/202101:23:11.486,-0.55865478515625,0.2117919921875,-0.8029632568359375,0.0
06/01/202101:23:11.496,-0.5596466064453125,0.2130279541015625,-0.8020782470703125,0.0
06/01/202101:23:11.523,-0.5619659423828125,0.211578369140625,-0.803802490234375,0.0
06/01/202101:23:11.524,-0.5633544921875,0.2109375,-0.8039093017578125,0.0
06/01/202101:23:11.525,-0.5663299560546875,0.2110137939453125,-0.805816650390625,0.0
06/01/202101:23:11.536,-0.5682373046875,0.2117919921875,-0.8053436279296875,0.0
06/01/202101:23:11.545,-0.5695343017578125,0.212432861328125,-0.8051910400390625,0.0
06/01/202101:23:11.556,-0.569244384765625,0.2138214111328125,-0.8025054931640625,0.0
06/01/202101:23:11.584,-0.5695037841796875,0.2149658203125,-0.800018310546875,0.0
06/01/202101:23:11.585,-0.5672760009765625,0.2154541015625,-0.7982025146484375,0.0
06/01/202101:23:11.595,-0.5667877197265625,0.215118408203125,-0.7975006103515625,0.0
06/01/202101:23:11.606,-0.56756591796875,0.2150421142578125,-0.7979583740234375,0.0
06/01/202101:23:11.615,-0.569244384765625,0.2154541015625,-0.797088623046875,0.0
06/01/202101:23:11.642,-0.569580078125,0.216552734375,-0.798858642578125,0.0
06/01/202101:23:11.645,-0.5716552734375,0.218475341796875,-0.8009490966796875,0.0
06/01/202101:23:11.656,-0.5715789794921875,0.220733642578125,-0.8000946044921875,0.0
06/01/202101:23:11.665,-0.5714569091796875,0.2209014892578125,-0.799652099609375,0.0
06/01/202101:23:11.675,-0.5706939697265625,0.221466064453125,-0.799560546875,0.0
06/01/202101:23:11.704,-0.5696258544921875,0.2198638916015625,-0.7986297607421875,0.0
06/01/202101:23:11.705,-0.5672149658203125,0.220245361328125,-0.8004302978515625,0.0
06/01/202101:23:11.715,-0.566436767578125,0.2187042236328125,-0.8003997802734375,0.0
06/01/202101:23:11.725,-0.566192626953125,0.2197113037109375,-0.800689697265625,0.0
06/01/202101:23:11.735,-0.565277099609375,0.2182159423828125,-0.8001556396484375,0.0
06/01/202101:23:11.763,-0.5630340576171875,0.2168426513671875,-0.8006744384765625,0.0
06/01/202101:23:11.764,-0.5621795654296875,0.21636962890625,-0.802032470703125,0.0
06/01/202101:23:11.765,-0.562255859375,0.21478271484375,-0.805419921875,0.0
06/01/202101:23:11.775,-0.5626678466796875,0.2132110595703125,-0.80426025390625,0.0
06/01/202101:23:11.786,-0.5623321533203125,0.21331787109375,-0.8046722412109375,0.0
06/01/202101:23:11.795,-0.5631103515625,0.2136383056640625,-0.8054656982421875,0.0
06/01/202101:23:11.822,-0.563995361328125,0.2146453857421875,-0.805267333984375,0.0
06/01/202101:23:11.823,-0.5626068115234375,0.2141571044921875,-0.8039398193359375,0.0
06/01/202101:23:11.825,-0.5618133544921875,0.2134246826171875,-0.8035888671875,0.0
06/01/202101:23:11.836,-0.56146240234375,0.212188720703125,-0.8025970458984375,0.0
06/01/202101:23:11.845,-0.5609893798828125,0.211944580078125,-0.8017578125,0.0
06/01/202101:23:11.855,-0.5621337890625,0.211639404296875,-0.801544189453125,0.0
06/01/202101:23:11.885,-0.56396484375,0.2118988037109375,-0.8011322021484375,0.0
06/01/202101:23:11.895,-0.5661163330078125,0.214111328125,-0.8043060302734375,0.0
06/01/202101:23:11.905,-0.5668487548828125,0.2144317626953125,-0.803741455078125,0.0
06/01/202101:23:11.915,-0.5666656494140625,0.215850830078125,-0.802154541015625,0.0
06/01/202101:23:11.941,-0.566680908203125,0.21527099609375,-0.8012847900390625,0.0
06/01/202101:23:11.945,-0.5655517578125,0.2152862548828125,-0.80157470703125,0.0
06/01/202101:23:11.955,-0.56549072265625,0.2165985107421875,-0.802337646484375,0.0
06/01/202101:23:11.965,-0.566619873046875,0.217864990234375,-0.800537109375,0.0
06/01/202101:23:11.975,-0.567474365234375,0.2184600830078125,-0.7999267578125,0.0
06/01/202101:23:12.003,-0.5680389404296875,0.2178955078125,-0.8008270263671875,0.0
06/01/202101:23:12.005,-0.56817626953125,0.2191925048828125,-0.7999420166015625,0.0
06/01/202101:23:12.015,-0.567535400390625,0.2191619873046875,-0.799285888671875,0.0
06/01/202101:23:12.025,-0.5677947998046875,0.217529296875,-0.7978668212890625,0.0
06/01/202101:23:12.035,-0.5683441162109375,0.21539306640625,-0.79901123046875,0.0
06/01/202101:23:12.062,-0.5691680908203125,0.2153472900390625,-0.80291748046875,0.0
06/01/202101:23:12.065,-0.56951904296875,0.2161102294921875,-0.80224609375,0.0
06/01/202101:23:12.075,-0.5681610107421875,0.2170257568359375,-0.801513671875,0.0
06/01/202101:23:12.085,-0.566925048828125,0.2169647216796875,-0.800933837890625,0.0
06/01/202101:23:12.095,-0.565155029296875,0.215972900390625,-0.8014373779296875,0.0
06/01/202101:23:12.120,-0.5642242431640625,0.214691162109375,-0.8015289306640625,0.0
06/01/202101:23:12.125,-0.563751220703125,0.2119293212890625,-0.8032684326171875,0.0
06/01/202101:23:12.135,-0.5648193359375,0.2151641845703125,-0.8025970458984375,0.0
06/01/202101:23:12.145,-0.564971923828125,0.215728759765625,-0.8020782470703125,0.0
06/01/202101:23:12.155,-0.5642242431640625,0.217437744140625,-0.8018951416015625,0.0
06/01/202101:23:12.179,-0.5627899169921875,0.2166900634765625,-0.80157470703125,0.0
06/01/202101:23:12.185,-0.5631256103515625,0.21331787109375,-0.80181884765625,0.0
06/01/202101:23:12.195,-0.5644073486328125,0.2121734619140625,-0.8032073974609375,0.0
06/01/202101:23:12.205,-0.5653533935546875,0.2123565673828125,-0.803863525390625,0.0
06/01/202101:23:12.215,-0.5653533935546875,0.212921142578125,-0.8050994873046875,0.0
06/01/202101:23:12.242,-0.5659332275390625,0.2154388427734375,-0.8055877685546875,0.0
06/01/202101:23:12.245,-0.5639190673828125,0.2134857177734375,-0.8012237548828125,0.0
06/01/202101:23:12.255,-0.563201904296875,0.214080810546875,-0.7999420166015625,0.0
06/01/202101:23:12.265,-0.56390380859375,0.215118408203125,-0.7985076904296875,0.0
06/01/202101:23:12.275,-0.56494140625,0.215423583984375,-0.799652099609375,0.0
06/01/202101:23:12.299,-0.566192626953125,0.214691162109375,-0.7991485595703125,0.0
06/01/202101:23:12.300,-0.5676422119140625,0.215301513671875,-0.7987213134765625,0.0
06/01/202101:23:12.305,-0.5689544677734375,0.2156982421875,-0.8000030517578125,0.0
06/01/202101:23:12.315,-0.569061279296875,0.21728515625,-0.8019561767578125,0.0
06/01/202101:23:12.325,-0.5688629150390625,0.22149658203125,-0.8013458251953125,0.0
06/01/202101:23:12.335,-0.5682830810546875,0.222930908203125,-0.79888916015625,0.0
06/01/202101:23:12.361,-0.5662994384765625,0.22344970703125,-0.79864501953125,0.0
06/01/202101:23:12.362,-0.5643310546875,0.22344970703125,-0.7997894287109375,0.0
06/01/202101:23:12.365,-0.5644683837890625,0.2214813232421875,-0.80029296875,0.0
06/01/202101:23:12.375,-0.5652313232421875,0.2180633544921875,-0.8011474609375,0.0
06/01/202101:23:12.385,-0.565399169921875,0.216644287109375,-0.8026580810546875,0.0
06/01/202101:23:12.395,-0.5670013427734375,0.21661376953125,-0.8038330078125,0.0
06/01/202101:23:12.420,-0.5674285888671875,0.2191162109375,-0.8031768798828125,0.0
06/01/202101:23:12.425,-0.5637969970703125,0.22308349609375,-0.8004913330078125,0.0
06/01/202101:23:12.435,-0.56219482421875,0.218963623046875,-0.799591064453125,0.0
06/01/202101:23:12.445,-0.560791015625,0.2164764404296875,-0.800933837890625,0.0
06/01/202101:23:12.455,-0.5617218017578125,0.2140655517578125,-0.8020782470703125,0.0
06/01/202101:23:12.484,-0.56341552734375,0.212921142578125,-0.8038787841796875,0.0
06/01/202101:23:12.485,-0.5649566650390625,0.2152099609375,-0.8028717041015625,0.0
06/01/202101:23:12.495,-0.5652923583984375,0.2151641845703125,-0.8033447265625,0.0
06/01/202101:23:12.505,-0.5636138916015625,0.21441650390625,-0.8038177490234375,0.0
06/01/202101:23:12.515,-0.563720703125,0.2139434814453125,-0.80419921875,0.0
06/01/202101:23:12.542,-0.5632476806640625,0.212310791015625,-0.8026275634765625,0.0
06/01/202101:23:12.545,-0.56512451171875,0.2102203369140625,-0.801513671875,0.0
06/01/202101:23:12.555,-0.566131591796875,0.21002197265625,-0.80023193359375,0.0
06/01/202101:23:12.565,-0.5668182373046875,0.210784912109375,-0.8005828857421875,0.0
06/01/202101:23:12.575,-0.5662994384765625,0.2109222412109375,-0.800994873046875,0.0
06/01/202101:23:12.601,-0.566802978515625,0.2095184326171875,-0.8003387451171875,0.0
06/01/202101:23:12.605,-0.5664825439453125,0.2106170654296875,-0.802734375,0.0
06/01/202101:23:12.615,-0.5670623779296875,0.21142578125,-0.8032989501953125,0.0
06/01/202101:23:12.625,-0.56719970703125,0.2117156982421875,-0.8022918701171875,0.0
06/01/202101:23:12.635,-0.5668182373046875,0.2122650146484375,-0.8018341064453125,0.0
06/01/202101:23:12.661,-0.566864013671875,0.21209716796875,-0.8015289306640625,0.0
06/01/202101:23:12.664,-0.567779541015625,0.2169036865234375,-0.8010406494140625,0.0
06/01/202101:23:12.675,-0.5684661865234375,0.221099853515625,-0.79986572265625,0.0
06/01/202101:23:12.685,-0.570587158203125,0.2258453369140625,-0.7991943359375,0.0
06/01/202101:23:12.695,-0.5717620849609375,0.2286529541015625,-0.796783447265625,0.0
06/01/202101:23:12.722,-0.571990966796875,0.2282867431640625,-0.7950897216796875,0.0
06/01/202101:23:12.724,-0.5677337646484375,0.2197265625,-0.796661376953125,0.0
06/01/202101:23:12.735,-0.5664825439453125,0.215484619140625,-0.798126220703125,0.0
06/01/202101:23:12.745,-0.56719970703125,0.214019775390625,-0.8009796142578125,0.0
06/01/202101:23:12.755,-0.5673828125,0.2140960693359375,-0.8028717041015625,0.0
06/01/202101:23:12.784,-0.568023681640625,0.2137603759765625,-0.802581787109375,0.0
06/01/202101:23:12.785,-0.570281982421875,0.212646484375,-0.8053131103515625,0.0
06/01/202101:23:12.795,-0.5709686279296875,0.2121429443359375,-0.8048553466796875,0.0
06/01/202101:23:12.805,-0.57080078125,0.2144927978515625,-0.8039093017578125,0.0
06/01/202101:23:12.815,-0.5704193115234375,0.2163238525390625,-0.801116943359375,0.0
06/01/202101:23:12.843,-0.5705718994140625,0.21685791015625,-0.7992706298828125,0.0
06/01/202101:23:12.844,-0.568634033203125,0.217529296875,-0.7949676513671875,0.0
06/01/202101:23:12.855,-0.5662841796875,0.213226318359375,-0.7947235107421875,0.0
06/01/202101:23:12.865,-0.5663604736328125,0.2102813720703125,-0.79779052734375,0.0
06/01/202101:23:12.874,-0.5682525634765625,0.2095947265625,-0.8012542724609375,0.0
06/01/202101:23:12.900,-0.57080078125,0.2121429443359375,-0.8048553466796875,0.0
06/01/202101:23:12.901,-0.5720062255859375,0.2164154052734375,-0.80499267578125,0.0
06/01/202101:23:12.904,-0.5708770751953125,0.218353271484375,-0.80426025390625,0.0
06/01/202101:23:12.915,-0.5679168701171875,0.2198333740234375,-0.8033599853515625,0.0
06/01/202101:23:12.924,-0.5635833740234375,0.2184295654296875,-0.8007049560546875,0.0
06/01/202101:23:12.934,-0.56024169921875,0.2149200439453125,-0.799285888671875,0.0
06/01/202101:23:12.964,-0.55999755859375,0.21258544921875,-0.8002166748046875,0.0
06/01/202101:23:12.965,-0.5613861083984375,0.213226318359375,-0.8018798828125,0.0
06/01/202101:23:12.975,-0.5641021728515625,0.21478271484375,-0.8028106689453125,0.0
06/01/202101:23:12.984,-0.565704345703125,0.21624755859375,-0.8065338134765625,0.0
06/01/202101:23:12.994,-0.5649261474609375,0.216522216796875,-0.8061065673828125,0.0
06/01/202101:23:13.021,-0.5645904541015625,0.214813232421875,-0.806488037109375,0.0
06/01/202101:23:13.022,-0.5640106201171875,0.21295166015625,-0.80596923828125,0.0
06/01/202101:23:13.024,-0.565032958984375,0.213134765625,-0.8027496337890625,0.0
06/01/202101:23:13.035,-0.564788818359375,0.2132415771484375,-0.8011627197265625,0.0
06/01/202101:23:13.044,-0.56329345703125,0.2151947021484375,-0.8003692626953125,0.0
06/01/202101:23:13.054,-0.5633087158203125,0.2148590087890625,-0.801727294921875,0.0
06/01/202101:23:13.084,-0.56396484375,0.2148284912109375,-0.8029022216796875,0.0
06/01/202101:23:13.085,-0.565521240234375,0.2143402099609375,-0.8020477294921875,0.0
06/01/202101:23:13.094,-0.566162109375,0.212982177734375,-0.8017120361328125,0.0
06/01/202101:23:13.104,-0.5668487548828125,0.2138214111328125,-0.8006591796875,0.0
06/01/202101:23:13.114,-0.566558837890625,0.2166595458984375,-0.80126953125,0.0
06/01/202101:23:13.141,-0.5663604736328125,0.216827392578125,-0.8004913330078125,0.0
06/01/202101:23:13.144,-0.5668792724609375,0.2192840576171875,-0.7994537353515625,0.0
06/01/202101:23:13.154,-0.5686798095703125,0.2178955078125,-0.79901123046875,0.0
06/01/202101:23:13.164,-0.5687713623046875,0.216705322265625,-0.7994537353515625,0.0
06/01/202101:23:13.174,-0.5695953369140625,0.2158660888671875,-0.800506591796875,0.0
06/01/202101:23:13.203,-0.5702667236328125,0.2151336669921875,-0.800384521484375,0.0
06/01/202101:23:13.204,-0.5673675537109375,0.2158203125,-0.799072265625,0.0
06/01/202101:23:13.214,-0.5673370361328125,0.2159881591796875,-0.799957275390625,0.0
06/01/202101:23:13.224,-0.567291259765625,0.2156829833984375,-0.7996673583984375,0.0
06/01/202101:23:13.234,-0.5668182373046875,0.2148590087890625,-0.799102783203125,0.0
06/01/202101:23:13.262,-0.5679473876953125,0.214202880859375,-0.799835205078125,0.0
06/01/202101:23:13.263,-0.566680908203125,0.214080810546875,-0.80145263671875,0.0
06/01/202101:23:13.264,-0.56549072265625,0.214996337890625,-0.8026580810546875,0.0
06/01/202101:23:13.274,-0.5641632080078125,0.2149810791015625,-0.8026123046875,0.0
06/01/202101:23:13.284,-0.563751220703125,0.2159881591796875,-0.801666259765625,0.0
06/01/202101:23:13.294,-0.562835693359375,0.2168121337890625,-0.8013458251953125,0.0
06/01/202101:23:13.324,-0.5635528564453125,0.2183990478515625,-0.801727294921875,0.0
06/01/202101:23:13.334,-0.5676727294921875,0.2187042236328125,-0.80322265625,0.0
06/01/202101:23:13.344,-0.5688934326171875,0.2196502685546875,-0.802276611328125,0.0
06/01/202101:23:13.355,-0.567718505859375,0.2208251953125,-0.799285888671875,0.0
06/01/202101:23:13.382,-0.5664215087890625,0.221160888671875,-0.79766845703125,0.0
06/01/202101:23:13.384,-0.5659637451171875,0.217132568359375,-0.797882080078125,0.0
06/01/202101:23:13.394,-0.5665283203125,0.21563720703125,-0.7997283935546875,0.0
06/01/202101:23:13.404,-0.5689849853515625,0.2148895263671875,-0.8020477294921875,0.0
06/01/202101:23:13.414,-0.5714111328125,0.2134246826171875,-0.80450439453125,0.0
06/01/202101:23:13.441,-0.5722198486328125,0.213714599609375,-0.80303955078125,0.0
06/01/202101:23:13.442,-0.5722198486328125,0.2135009765625,-0.800811767578125,0.0
06/01/202101:23:13.444,-0.5693511962890625,0.2138671875,-0.799102783203125,0.0
06/01/202101:23:13.455,-0.5690155029296875,0.2132110595703125,-0.7981719970703125,0.0
06/01/202101:23:13.464,-0.5686492919921875,0.212005615234375,-0.7972412109375,0.0
06/01/202101:23:13.474,-0.5693206787109375,0.2116851806640625,-0.79693603515625,0.0
06/01/202101:23:13.504,-0.5699920654296875,0.2122344970703125,-0.7993927001953125,0.0
06/01/202101:23:13.505,-0.5715789794921875,0.212860107421875,-0.7990875244140625,0.0
06/01/202101:23:13.514,-0.571014404296875,0.2141265869140625,-0.79998779296875,0.0
06/01/202101:23:13.524,-0.5699005126953125,0.2143402099609375,-0.7998809814453125,0.0
06/01/202101:23:13.534,-0.5689544677734375,0.2137451171875,-0.8001708984375,0.0
06/01/202101:23:13.563,-0.5679168701171875,0.2130126953125,-0.800537109375,0.0
06/01/202101:23:13.564,-0.5644989013671875,0.2120361328125,-0.8040313720703125,0.0
06/01/202101:23:13.574,-0.563568115234375,0.2117156982421875,-0.8032379150390625,0.0
06/01/202101:23:13.584,-0.562591552734375,0.211212158203125,-0.802093505859375,0.0
06/01/202101:23:13.594,-0.562713623046875,0.2112274169921875,-0.8014984130859375,0.0
06/01/202101:23:13.622,-0.5634307861328125,0.2120513916015625,-0.8013458251953125,0.0
06/01/202101:23:13.623,-0.5651092529296875,0.21221923828125,-0.801055908203125,0.0
06/01/202101:23:13.624,-0.5650177001953125,0.2127685546875,-0.801025390625,0.0
06/01/202101:23:13.634,-0.5648345947265625,0.212493896484375,-0.8011627197265625,0.0
06/01/202101:23:13.644,-0.5647430419921875,0.213043212890625,-0.80194091796875,0.0
06/01/202101:23:13.654,-0.5642242431640625,0.21307373046875,-0.804779052734375,0.0
06/01/202101:23:13.680,-0.5631256103515625,0.214813232421875,-0.8066864013671875,0.0
06/01/202101:23:13.684,-0.5636444091796875,0.214630126953125,-0.8025665283203125,0.0
06/01/202101:23:13.694,-0.5635528564453125,0.215087890625,-0.80078125,0.0
06/01/202101:23:13.704,-0.564727783203125,0.2153167724609375,-0.8003692626953125,0.0
06/01/202101:23:13.714,-0.5639495849609375,0.2162628173828125,-0.800506591796875,0.0
06/01/202101:23:13.743,-0.5651092529296875,0.2159576416015625,-0.800537109375,0.0
06/01/202101:23:13.744,-0.56396484375,0.2158355712890625,-0.80108642578125,0.0
06/01/202101:23:13.754,-0.5650634765625,0.2143402099609375,-0.8029022216796875,0.0
06/01/202101:23:13.764,-0.5660247802734375,0.21478271484375,-0.803558349609375,0.0
06/01/202101:23:13.774,-0.5682525634765625,0.213531494140625,-0.8027801513671875,0.0
06/01/202101:23:13.803,-0.5674896240234375,0.2118377685546875,-0.8011322021484375,0.0
06/01/202101:23:13.804,-0.567626953125,0.2111968994140625,-0.7998199462890625,0.0
06/01/202101:23:13.814,-0.5670623779296875,0.2102203369140625,-0.799072265625,0.0
06/01/202101:23:13.824,-0.5682373046875,0.210052490234375,-0.7990875244140625,0.0
06/01/202101:23:13.834,-0.5674285888671875,0.211883544921875,-0.7995758056640625,0.0
06/01/202101:23:13.864,-0.5686187744140625,0.2118072509765625,-0.800628662109375,0.0
06/01/202101:23:13.865,-0.569305419921875,0.2116546630859375,-0.8031463623046875,0.0
06/01/202101:23:13.874,-0.5699310302734375,0.211883544921875,-0.8031005859375,0.0
06/01/202101:23:13.884,-0.57208251953125,0.2112884521484375,-0.8037261962890625,0.0
06/01/202101:23:13.894,-0.5716552734375,0.2103729248046875,-0.8023529052734375,0.0
06/01/202101:23:13.921,-0.5707550048828125,0.21002197265625,-0.8019561767578125,0.0
06/01/202101:23:13.922,-0.5693511962890625,0.2108306884765625,-0.799468994140625,0.0
06/01/202101:23:13.924,-0.567657470703125,0.211700439453125,-0.7989654541015625,0.0
06/01/202101:23:13.934,-0.567230224609375,0.2125244140625,-0.79833984375,0.0
06/01/202101:23:13.944,-0.567901611328125,0.212554931640625,-0.7993011474609375,0.0
06/01/202101:23:13.954,-0.5689239501953125,0.2128753662109375,-0.80010986328125,0.0
06/01/202101:23:13.984,-0.5680694580078125,0.2135162353515625,-0.8008270263671875,0.0
06/01/202101:23:13.994,-0.564605712890625,0.2135467529296875,-0.80279541015625,0.0
06/01/202101:23:14.004,-0.564178466796875,0.2124176025390625,-0.8039093017578125,0.0
06/01/202101:23:14.013,-0.5655059814453125,0.211578369140625,-0.803680419921875,0.0
06/01/202101:23:14.044,-0.5660400390625,0.212066650390625,-0.8029327392578125,0.0
06/01/202101:23:14.054,-0.566558837890625,0.2129974365234375,-0.8027191162109375,0.0
06/01/202101:23:14.063,-0.5671539306640625,0.212921142578125,-0.8016510009765625,0.0
06/01/202101:23:14.074,-0.567901611328125,0.21331787109375,-0.8021392822265625,0.0
06/01/202101:23:14.101,-0.5685577392578125,0.212310791015625,-0.8020477294921875,0.0
06/01/202101:23:14.103,-0.5695037841796875,0.2144317626953125,-0.8036956787109375,0.0
06/01/202101:23:14.114,-0.56903076171875,0.214996337890625,-0.802642822265625,0.0
06/01/202101:23:14.124,-0.5673065185546875,0.217193603515625,-0.802642822265625,0.0
06/01/202101:23:14.133,-0.566375732421875,0.215789794921875,-0.80035400390625,0.0
06/01/202101:23:14.163,-0.5653533935546875,0.2142333984375,-0.800628662109375,0.0
06/01/202101:23:14.174,-0.5678558349609375,0.21209716796875,-0.8014678955078125,0.0
06/01/202101:23:14.183,-0.569549560546875,0.2124481201171875,-0.8036956787109375,0.0
06/01/202101:23:14.193,-0.5699005126953125,0.212860107421875,-0.8042755126953125,0.0
06/01/202101:23:14.222,-0.569091796875,0.212188720703125,-0.802947998046875,0.0
06/01/202101:23:14.223,-0.5656585693359375,0.2092437744140625,-0.801300048828125,0.0
06/01/202101:23:14.234,-0.5645599365234375,0.2079925537109375,-0.8003082275390625,0.0
06/01/202101:23:14.243,-0.563720703125,0.206268310546875,-0.801116943359375,0.0
06/01/202101:23:14.253,-0.56292724609375,0.206634521484375,-0.8018035888671875,0.0
06/01/202101:23:14.283,-0.563262939453125,0.2078857421875,-0.803375244140625,0.0
06/01/202101:23:14.284,-0.5658721923828125,0.211578369140625,-0.8056640625,0.0
06/01/202101:23:14.293,-0.5662384033203125,0.214813232421875,-0.80548095703125,0.0
06/01/202101:23:14.304,-0.5661468505859375,0.2158203125,-0.8033447265625,0.0
06/01/202101:23:14.313,-0.566131591796875,0.21514892578125,-0.8028717041015625,0.0
06/01/202101:23:14.345,-0.5657196044921875,0.213592529296875,-0.801544189453125,0.0
06/01/202101:23:14.346,-0.56414794921875,0.2120819091796875,-0.8010711669921875,0.0
06/01/202101:23:14.353,-0.5628814697265625,0.2125396728515625,-0.8021087646484375,0.0
06/01/202101:23:14.364,-0.5623321533203125,0.213623046875,-0.803741455078125,0.0
06/01/202101:23:14.374,-0.562744140625,0.2145233154296875,-0.805084228515625,0.0
06/01/202101:23:14.400,-0.562225341796875,0.216064453125,-0.8046722412109375,0.0
06/01/202101:23:14.403,-0.560302734375,0.2131195068359375,-0.80450439453125,0.0
06/01/202101:23:14.413,-0.5601806640625,0.2122802734375,-0.80584716796875,0.0
06/01/202101:23:14.424,-0.559783935546875,0.20989990234375,-0.806549072265625,0.0
06/01/202101:23:14.434,-0.5598602294921875,0.2078094482421875,-0.806915283203125,0.0
06/01/202101:23:14.451,-0.56011962890625,0.2081298828125,-0.8069000244140625,0.0
06/01/202101:23:14.461,-0.560791015625,0.208831787109375,-0.806182861328125,0.0
06/01/202101:23:14.463,-0.5611114501953125,0.210784912109375,-0.8045196533203125,0.0
06/01/202101:23:14.474,-0.5618133544921875,0.212158203125,-0.8036956787109375,0.0
06/01/202101:23:14.484,-0.563812255859375,0.212554931640625,-0.803680419921875,0.0
06/01/202101:23:14.493,-0.5652618408203125,0.21221923828125,-0.802154541015625,0.0
06/01/202101:23:14.521,-0.56732177734375,0.2119140625,-0.8017120361328125,0.0
06/01/202101:23:14.522,-0.5682525634765625,0.2125091552734375,-0.8022308349609375,0.0
06/01/202101:23:14.523,-0.569915771484375,0.2139892578125,-0.8001251220703125,0.0
06/01/202101:23:14.534,-0.5697021484375,0.2159423828125,-0.799591064453125,0.0
06/01/202101:23:14.543,-0.5704345703125,0.2155914306640625,-0.800140380859375,0.0
06/01/202101:23:14.554,-0.5701141357421875,0.2152557373046875,-0.79962158203125,0.0
06/01/202101:23:14.580,-0.5710906982421875,0.214935302734375,-0.7996978759765625,0.0
06/01/202101:23:14.581,-0.5712738037109375,0.2150115966796875,-0.7996978759765625,0.0
06/01/202101:23:14.583,-0.572113037109375,0.2143707275390625,-0.8000946044921875,0.0
06/01/202101:23:14.593,-0.5720977783203125,0.2148895263671875,-0.801116943359375,0.0
06/01/202101:23:14.604,-0.57086181640625,0.2147674560546875,-0.8026885986328125,0.0
06/01/202101:23:14.613,-0.5700836181640625,0.21539306640625,-0.801513671875,0.0
06/01/202101:23:14.640,-0.5697784423828125,0.2146453857421875,-0.8006439208984375,0.0
06/01/202101:23:14.641,-0.5699462890625,0.2157135009765625,-0.7991943359375,0.0
06/01/202101:23:14.643,-0.5705718994140625,0.2154998779296875,-0.7987518310546875,0.0
06/01/202101:23:14.654,-0.5702972412109375,0.2129364013671875,-0.7987518310546875,0.0
06/01/202101:23:14.663,-0.5697021484375,0.2134552001953125,-0.800018310546875,0.0
06/01/202101:23:14.673,-0.5678253173828125,0.2149658203125,-0.8013916015625,0.0
06/01/202101:23:14.704,-0.5655975341796875,0.2154998779296875,-0.803436279296875,0.0
06/01/202101:23:14.705,-0.565032958984375,0.215606689453125,-0.80426025390625,0.0
06/01/202101:23:14.713,-0.56585693359375,0.21527099609375,-0.8047943115234375,0.0
06/01/202101:23:14.723,-0.5665435791015625,0.214752197265625,-0.8057098388671875,0.0
06/01/202101:23:14.733,-0.566680908203125,0.2131805419921875,-0.804412841796875,0.0
06/01/202101:23:14.762,-0.5654754638671875,0.213531494140625,-0.8025360107421875,0.0
06/01/202101:23:14.763,-0.5638427734375,0.2139129638671875,-0.7986297607421875,0.0
06/01/202101:23:14.773,-0.563140869140625,0.214569091796875,-0.797760009765625,0.0
06/01/202101:23:14.784,-0.564788818359375,0.2152252197265625,-0.7995147705078125,0.0
06/01/202101:23:14.793,-0.5654144287109375,0.2141876220703125,-0.8008270263671875,0.0
06/01/202101:23:14.822,-0.56622314453125,0.213348388671875,-0.8035888671875,0.0
06/01/202101:23:14.823,-0.565826416015625,0.211822509765625,-0.804779052734375,0.0
06/01/202101:23:14.833,-0.5659332275390625,0.211822509765625,-0.8059844970703125,0.0
06/01/202101:23:14.843,-0.565155029296875,0.2111663818359375,-0.804931640625,0.0
06/01/202101:23:14.853,-0.5632476806640625,0.2109375,-0.8037567138671875,0.0
06/01/202101:23:14.881,-0.5618743896484375,0.21063232421875,-0.8029937744140625,0.0
06/01/202101:23:14.883,-0.559417724609375,0.21234130859375,-0.801849365234375,0.0
06/01/202101:23:14.893,-0.560272216796875,0.2122955322265625,-0.8036346435546875,0.0
06/01/202101:23:14.903,-0.56207275390625,0.212158203125,-0.8048553466796875,0.0
06/01/202101:23:14.913,-0.5618896484375,0.2123565673828125,-0.8046112060546875,0.0
06/01/202101:23:14.941,-0.56256103515625,0.2130279541015625,-0.8048858642578125,0.0
06/01/202101:23:14.943,-0.562713623046875,0.215057373046875,-0.8058013916015625,0.0
06/01/202101:23:14.953,-0.5625152587890625,0.2152099609375,-0.8025054931640625,0.0
06/01/202101:23:14.963,-0.5626983642578125,0.2146148681640625,-0.8016357421875,0.0
06/01/202101:23:14.973,-0.562744140625,0.21331787109375,-0.80029296875,0.0
06/01/202101:23:14.999,-0.562744140625,0.213043212890625,-0.801116943359375,0.0
06/01/202101:23:15.003,-0.5652618408203125,0.2143707275390625,-0.8045196533203125,0.0
06/01/202101:23:15.013,-0.5649871826171875,0.214569091796875,-0.8039093017578125,0.0
06/01/202101:23:15.023,-0.5648956298828125,0.214447021484375,-0.8038330078125,0.0
06/01/202101:23:15.033,-0.5651702880859375,0.2147369384765625,-0.803436279296875,0.0
06/01/202101:23:15.066,-0.5642852783203125,0.2137451171875,-0.8031768798828125,0.0
06/01/202101:23:15.073,-0.56451416015625,0.2106781005859375,-0.8041839599609375,0.0
06/01/202101:23:15.083,-0.5650482177734375,0.21038818359375,-0.8047637939453125,0.0
06/01/202101:23:15.093,-0.5659027099609375,0.2111358642578125,-0.8060150146484375,0.0
06/01/202101:23:15.123,-0.564971923828125,0.2113494873046875,-0.8045654296875,0.0
06/01/202101:23:15.124,-0.5649566650390625,0.2110443115234375,-0.8041839599609375,0.0
06/01/202101:23:15.133,-0.563385009765625,0.2095794677734375,-0.802154541015625,0.0
06/01/202101:23:15.143,-0.56378173828125,0.208892822265625,-0.803741455078125,0.0
06/01/202101:23:15.153,-0.563385009765625,0.208343505859375,-0.8037109375,0.0
06/01/202101:23:15.180,-0.563507080078125,0.2090301513671875,-0.80230712890625,0.0
06/01/202101:23:15.181,-0.5640106201171875,0.209564208984375,-0.80322265625,0.0
06/01/202101:23:15.183,-0.5645751953125,0.2093658447265625,-0.8046112060546875,0.0
06/01/202101:23:15.193,-0.5640411376953125,0.2098388671875,-0.8045196533203125,0.0
06/01/202101:23:15.203,-0.564453125,0.2104644775390625,-0.80487060546875,0.0
06/01/202101:23:15.213,-0.5642852783203125,0.209320068359375,-0.80377197265625,0.0
06/01/202101:23:15.241,-0.564544677734375,0.2080535888671875,-0.80377197265625,0.0
06/01/202101:23:15.243,-0.56536865234375,0.20916748046875,-0.80316162109375,0.0
06/01/202101:23:15.253,-0.565399169921875,0.2101287841796875,-0.8055267333984375,0.0
06/01/202101:23:15.263,-0.564453125,0.211395263671875,-0.805999755859375,0.0
06/01/202101:23:15.273,-0.5632781982421875,0.2123260498046875,-0.8051300048828125,0.0
06/01/202101:23:15.301,-0.5634307861328125,0.2130279541015625,-0.8054351806640625,0.0
06/01/202101:23:15.303,-0.5626068115234375,0.2144012451171875,-0.8035888671875,0.0
06/01/202101:23:15.313,-0.56231689453125,0.214019775390625,-0.8038330078125,0.0
06/01/202101:23:15.323,-0.5634765625,0.2150726318359375,-0.8036041259765625,0.0
06/01/202101:23:15.333,-0.5638580322265625,0.2142333984375,-0.80438232421875,0.0
06/01/202101:23:15.362,-0.56512451171875,0.212799072265625,-0.8042755126953125,0.0
06/01/202101:23:15.363,-0.56500244140625,0.2127532958984375,-0.80548095703125,0.0
06/01/202101:23:15.373,-0.56475830078125,0.2097015380859375,-0.805145263671875,0.0
06/01/202101:23:15.383,-0.5642242431640625,0.208831787109375,-0.8039703369140625,0.0
06/01/202101:23:15.393,-0.563873291015625,0.2085723876953125,-0.80426025390625,0.0
06/01/202101:23:15.424,-0.5615081787109375,0.207794189453125,-0.805023193359375,0.0
06/01/202101:23:15.425,-0.5614166259765625,0.20892333984375,-0.8062591552734375,0.0
06/01/202101:23:15.433,-0.5617523193359375,0.2104644775390625,-0.806488037109375,0.0
06/01/202101:23:15.443,-0.562896728515625,0.211517333984375,-0.8065185546875,0.0
06/01/202101:23:15.453,-0.5633392333984375,0.21270751953125,-0.8055572509765625,0.0
06/01/202101:23:15.480,-0.5638885498046875,0.212188720703125,-0.804840087890625,0.0
06/01/202101:23:15.481,-0.562835693359375,0.21148681640625,-0.805145263671875,0.0
06/01/202101:23:15.483,-0.5623321533203125,0.210235595703125,-0.803741455078125,0.0
06/01/202101:23:15.493,-0.562286376953125,0.2095794677734375,-0.804107666015625,0.0
06/01/202101:23:15.503,-0.5621337890625,0.2093353271484375,-0.8055267333984375,0.0
06/01/202101:23:15.513,-0.561676025390625,0.2099761962890625,-0.805938720703125,0.0
06/01/202101:23:15.543,-0.5610504150390625,0.2095489501953125,-0.805877685546875,0.0
06/01/202101:23:15.544,-0.5604705810546875,0.2109527587890625,-0.80657958984375,0.0
06/01/202101:23:15.553,-0.5625,0.212066650390625,-0.80389404296875,0.0
06/01/202101:23:15.563,-0.563690185546875,0.21246337890625,-0.802886962890625,0.0
06/01/202101:23:15.572,-0.564605712890625,0.21124267578125,-0.8026275634765625,0.0
06/01/202101:23:15.602,-0.56634521484375,0.210296630859375,-0.8010101318359375,0.0
06/01/202101:23:15.603,-0.56866455078125,0.21038818359375,-0.8017730712890625,0.0
06/01/202101:23:15.613,-0.5702972412109375,0.2134246826171875,-0.80328369140625,0.0
06/01/202101:23:15.623,-0.5706939697265625,0.2137603759765625,-0.801116943359375,0.0
06/01/202101:23:15.633,-0.5691986083984375,0.2149200439453125,-0.800567626953125,0.0
06/01/202101:23:15.652,-0.568359375,0.214202880859375,-0.800750732421875,0.0
06/01/202101:23:15.663,-0.56732177734375,0.2140045166015625,-0.8015594482421875,0.0
06/01/202101:23:15.673,-0.5663604736328125,0.2126922607421875,-0.8048553466796875,0.0
06/01/202101:23:15.683,-0.564971923828125,0.212860107421875,-0.8062286376953125,0.0
06/01/202101:23:15.692,-0.5624847412109375,0.212310791015625,-0.8072052001953125,0.0
06/01/202101:23:15.724,-0.5610809326171875,0.21319580078125,-0.80682373046875,0.0
06/01/202101:23:15.725,-0.5591888427734375,0.21197509765625,-0.8064117431640625,0.0
06/01/202101:23:15.733,-0.5575408935546875,0.20843505859375,-0.8062591552734375,0.0
06/01/202101:23:15.742,-0.5580902099609375,0.208282470703125,-0.8068084716796875,0.0
06/01/202101:23:15.752,-0.55865478515625,0.20965576171875,-0.806884765625,0.0
06/01/202101:23:15.762,-0.5598297119140625,0.2099456787109375,-0.8079986572265625,0.0
06/01/202101:23:15.784,-0.5601959228515625,0.21240234375,-0.8077850341796875,0.0
06/01/202101:23:15.793,-0.5593109130859375,0.2110137939453125,-0.8063201904296875,0.0
06/01/202101:23:15.803,-0.5597076416015625,0.21014404296875,-0.8053131103515625,0.0
06/01/202101:23:15.812,-0.5602874755859375,0.21112060546875,-0.805267333984375,0.0
06/01/202101:23:15.822,-0.5619964599609375,0.2115631103515625,-0.8043975830078125,0.0
06/01/202101:23:15.841,-0.5636138916015625,0.2092437744140625,-0.8045654296875,0.0
06/01/202101:23:15.842,-0.566314697265625,0.2100982666015625,-0.8032989501953125,0.0
06/01/202101:23:15.853,-0.566497802734375,0.2107086181640625,-0.80242919921875,0.0
06/01/202101:23:15.862,-0.5670623779296875,0.2111968994140625,-0.8023529052734375,0.0
06/01/202101:23:15.872,-0.567047119140625,0.21075439453125,-0.80096435546875,0.0
06/01/202101:23:15.903,-0.5673980712890625,0.211395263671875,-0.8013763427734375,0.0
06/01/202101:23:15.904,-0.5672607421875,0.211883544921875,-0.8029022216796875,0.0
06/01/202101:23:15.912,-0.56610107421875,0.2136688232421875,-0.8031158447265625,0.0
06/01/202101:23:15.922,-0.56561279296875,0.2130126953125,-0.8029022216796875,0.0
06/01/202101:23:15.932,-0.56475830078125,0.214080810546875,-0.8035888671875,0.0
06/01/202101:23:15.942,-0.56488037109375,0.2143402099609375,-0.8035888671875,0.0
06/01/202101:23:15.963,-0.5645599365234375,0.2125701904296875,-0.803070068359375,0.0
06/01/202101:23:15.964,-0.564453125,0.2127227783203125,-0.8026123046875,0.0
06/01/202101:23:15.972,-0.5630950927734375,0.2127838134765625,-0.8025970458984375,0.0
06/01/202101:23:15.982,-0.5624237060546875,0.21148681640625,-0.8023834228515625,0.0
06/01/202101:23:15.992,-0.5617523193359375,0.2112579345703125,-0.803619384765625,0.0
06/01/202101:23:16.002,-0.5620574951171875,0.2107086181640625,-0.80462646484375,0.0
06/01/202101:23:16.020,-0.5619964599609375,0.211090087890625,-0.8058624267578125,0.0
06/01/202101:23:16.022,-0.56317138671875,0.210784912109375,-0.8066864013671875,0.0
06/01/202101:23:16.032,-0.562835693359375,0.212158203125,-0.80633544921875,0.0
06/01/202101:23:16.042,-0.5618438720703125,0.212127685546875,-0.8067779541015625,0.0
06/01/202101:23:16.052,-0.5611114501953125,0.2129364013671875,-0.806396484375,0.0
06/01/202101:23:16.062,-0.560089111328125,0.21124267578125,-0.804962158203125,0.0
06/01/202101:23:16.083,-0.561370849609375,0.2106170654296875,-0.8038787841796875,0.0
06/01/202101:23:16.092,-0.5635223388671875,0.2119903564453125,-0.8062591552734375,0.0
06/01/202101:23:16.103,-0.5647125244140625,0.214508056640625,-0.8063201904296875,0.0
06/01/202101:23:16.112,-0.5662689208984375,0.2157440185546875,-0.803802490234375,0.0
06/01/202101:23:16.122,-0.56610107421875,0.218994140625,-0.802459716796875,0.0
06/01/202101:23:16.142,-0.5665435791015625,0.218109130859375,-0.80181884765625,0.0
06/01/202101:23:16.152,-0.5660247802734375,0.21246337890625,-0.8020477294921875,0.0
06/01/202101:23:16.162,-0.566162109375,0.2110748291015625,-0.802703857421875,0.0
06/01/202101:23:16.172,-0.5658416748046875,0.20880126953125,-0.8042449951171875,0.0
06/01/202101:23:16.182,-0.5655517578125,0.209808349609375,-0.8066253662109375,0.0
06/01/202101:23:16.202,-0.565948486328125,0.2101593017578125,-0.8050994873046875,0.0
06/01/202101:23:16.212,-0.562408447265625,0.209228515625,-0.8035736083984375,0.0
06/01/202101:23:16.223,-0.562774658203125,0.210479736328125,-0.801666259765625,0.0
06/01/202101:23:16.232,-0.5637054443359375,0.2093963623046875,-0.8033905029296875,0.0
06/01/202101:23:16.242,-0.5638885498046875,0.2079620361328125,-0.8032073974609375,0.0
06/01/202101:23:16.266,-0.56390380859375,0.2092132568359375,-0.8031005859375,0.0
06/01/202101:23:16.272,-0.564056396484375,0.21282958984375,-0.8045501708984375,0.0
06/01/202101:23:16.283,-0.564544677734375,0.2144775390625,-0.803680419921875,0.0
06/01/202101:23:16.292,-0.563934326171875,0.2151641845703125,-0.8029632568359375,0.0
06/01/202101:23:16.302,-0.5634613037109375,0.214324951171875,-0.8028106689453125,0.0
06/01/202101:23:16.323,-0.5625457763671875,0.214141845703125,-0.80303955078125,0.0
06/01/202101:23:16.324,-0.5617218017578125,0.213714599609375,-0.8045654296875,0.0
06/01/202101:23:16.332,-0.5606536865234375,0.2139892578125,-0.80535888671875,0.0
06/01/202101:23:16.343,-0.5607757568359375,0.2149200439453125,-0.8067626953125,0.0
06/01/202101:23:16.352,-0.5604400634765625,0.215850830078125,-0.8068695068359375,0.0
06/01/202101:23:16.362,-0.5601959228515625,0.215606689453125,-0.8064727783203125,0.0
06/01/202101:23:16.380,-0.560882568359375,0.215484619140625,-0.804779052734375,0.0
06/01/202101:23:16.382,-0.5605621337890625,0.212890625,-0.80499267578125,0.0
06/01/202101:23:16.392,-0.5611114501953125,0.210296630859375,-0.8056182861328125,0.0
06/01/202101:23:16.402,-0.561920166015625,0.208404541015625,-0.8057861328125,0.0
06/01/202101:23:16.412,-0.5615234375,0.208404541015625,-0.8046875,0.0
06/01/202101:23:16.431,-0.5621490478515625,0.20953369140625,-0.8054656982421875,0.0
06/01/202101:23:16.445,-0.5633392333984375,0.20941162109375,-0.8050689697265625,0.0
06/01/202101:23:16.452,-0.5646820068359375,0.2111968994140625,-0.802642822265625,0.0
06/01/202101:23:16.462,-0.5648040771484375,0.20892333984375,-0.8026580810546875,0.0
06/01/202101:23:16.472,-0.5656280517578125,0.20880126953125,-0.801971435546875,0.0
06/01/202101:23:16.482,-0.565673828125,0.2074127197265625,-0.803466796875,0.0
06/01/202101:23:16.502,-0.565948486328125,0.20733642578125,-0.803192138671875,0.0
06/01/202101:23:16.503,-0.5667266845703125,0.2094879150390625,-0.8040618896484375,0.0
06/01/202101:23:16.512,-0.5675811767578125,0.21124267578125,-0.802947998046875,0.0
06/01/202101:23:16.522,-0.5677642822265625,0.211639404296875,-0.802154541015625,0.0
06/01/202101:23:16.532,-0.567596435546875,0.2110748291015625,-0.8023681640625,0.0
06/01/202101:23:16.542,-0.5675506591796875,0.2112274169921875,-0.8023681640625,0.0
06/01/202101:23:16.562,-0.5665130615234375,0.209869384765625,-0.8024444580078125,0.0
06/01/202101:23:16.563,-0.566497802734375,0.210784912109375,-0.8026885986328125,0.0
06/01/202101:23:16.572,-0.5658721923828125,0.211456298828125,-0.80487060546875,0.0
06/01/202101:23:16.582,-0.565887451171875,0.213104248046875,-0.8042449951171875,0.0
06/01/202101:23:16.592,-0.565093994140625,0.2143096923828125,-0.803009033203125,0.0
06/01/202101:23:16.602,-0.563720703125,0.2147064208984375,-0.804473876953125,0.0
06/01/202101:23:16.620,-0.562744140625,0.21478271484375,-0.804229736328125,0.0
06/01/202101:23:16.622,-0.561676025390625,0.214996337890625,-0.8045196533203125,0.0
06/01/202101:23:16.632,-0.5614471435546875,0.2138214111328125,-0.8056182861328125,0.0
06/01/202101:23:16.642,-0.5612335205078125,0.213043212890625,-0.8058013916015625,0.0
06/01/202101:23:16.652,-0.56170654296875,0.2123565673828125,-0.8050994873046875,0.0
06/01/202101:23:16.662,-0.56134033203125,0.2121734619140625,-0.80511474609375,0.0
06/01/202101:23:16.683,-0.560821533203125,0.21173095703125,-0.80499267578125,0.0
06/01/202101:23:16.692,-0.5610809326171875,0.2112274169921875,-0.806488037109375,0.0
06/01/202101:23:16.702,-0.56109619140625,0.211456298828125,-0.8063812255859375,0.0
06/01/202101:23:16.712,-0.561492919921875,0.210784912109375,-0.8061981201171875,0.0
06/01/202101:23:16.722,-0.5619354248046875,0.210174560546875,-0.8062896728515625,0.0
06/01/202101:23:16.742,-0.5625762939453125,0.2093658447265625,-0.806121826171875,0.0
06/01/202101:23:16.752,-0.5624847412109375,0.2092437744140625,-0.8071746826171875,0.0
06/01/202101:23:16.762,-0.56243896484375,0.2099456787109375,-0.8054962158203125,0.0
06/01/202101:23:16.772,-0.5629730224609375,0.210357666015625,-0.803985595703125,0.0
06/01/202101:23:16.782,-0.5632171630859375,0.2108154296875,-0.8033905029296875,0.0
06/01/202101:23:16.802,-0.564056396484375,0.210723876953125,-0.8027191162109375,0.0
06/01/202101:23:16.803,-0.5651702880859375,0.2118377685546875,-0.8036956787109375,0.0
06/01/202101:23:16.812,-0.564971923828125,0.2122039794921875,-0.8033447265625,0.0
06/01/202101:23:16.822,-0.5657501220703125,0.212921142578125,-0.8037567138671875,0.0
06/01/202101:23:16.832,-0.5664520263671875,0.212890625,-0.8031768798828125,0.0
06/01/202101:23:16.842,-0.5667877197265625,0.21307373046875,-0.8031463623046875,0.0
06/01/202101:23:16.861,-0.5665130615234375,0.2131500244140625,-0.802490234375,0.0
06/01/202101:23:16.862,-0.5673675537109375,0.2127532958984375,-0.8032989501953125,0.0
06/01/202101:23:16.872,-0.5673828125,0.21221923828125,-0.803985595703125,0.0
06/01/202101:23:16.882,-0.56683349609375,0.2106781005859375,-0.8038482666015625,0.0
06/01/202101:23:16.892,-0.56610107421875,0.20928955078125,-0.8033447265625,0.0
06/01/202101:23:16.902,-0.56512451171875,0.2097930908203125,-0.8034515380859375,0.0
06/01/202101:23:16.923,-0.56402587890625,0.211212158203125,-0.803009033203125,0.0
06/01/202101:23:16.932,-0.565093994140625,0.2111358642578125,-0.802581787109375,0.0
06/01/202101:23:16.942,-0.5640106201171875,0.2098846435546875,-0.8013153076171875,0.0
06/01/202101:23:16.952,-0.5631103515625,0.210174560546875,-0.80218505859375,0.0
06/01/202101:23:16.962,-0.5625152587890625,0.21026611328125,-0.804595947265625,0.0
06/01/202101:23:16.981,-0.563201904296875,0.2105560302734375,-0.806549072265625,0.0
06/01/202101:23:16.982,-0.5622406005859375,0.21124267578125,-0.8060455322265625,0.0
06/01/202101:23:16.992,-0.562469482421875,0.2129058837890625,-0.8063812255859375,0.0
06/01/202101:23:17.002,-0.563232421875,0.2142486572265625,-0.8042144775390625,0.0
06/01/202101:23:17.011,-0.563873291015625,0.2156524658203125,-0.8037872314453125,0.0
06/01/202101:23:17.021,-0.56329345703125,0.2147369384765625,-0.8031005859375,0.0
06/01/202101:23:17.044,-0.561798095703125,0.2145538330078125,-0.8040008544921875,0.0
06/01/202101:23:17.052,-0.56268310546875,0.21429443359375,-0.8043212890625,0.0
06/01/202101:23:17.062,-0.5635986328125,0.213409423828125,-0.8043365478515625,0.0
06/01/202101:23:17.071,-0.56439208984375,0.2130889892578125,-0.8047332763671875,0.0
06/01/202101:23:17.081,-0.564300537109375,0.2124786376953125,-0.8044891357421875,0.0
06/01/202101:23:17.099,-0.56451416015625,0.2115020751953125,-0.804473876953125,0.0
06/01/202101:23:17.101,-0.5635833740234375,0.210723876953125,-0.805267333984375,0.0
06/01/202101:23:17.112,-0.5635528564453125,0.2099609375,-0.804656982421875,0.0
06/01/202101:23:17.122,-0.5647430419921875,0.210174560546875,-0.8054962158203125,0.0
06/01/202101:23:17.131,-0.56427001953125,0.20947265625,-0.8034210205078125,0.0
06/01/202101:23:17.141,-0.5648193359375,0.208648681640625,-0.8024749755859375,0.0
06/01/202101:23:17.159,-0.5643157958984375,0.208343505859375,-0.8035125732421875,0.0
06/01/202101:23:17.161,-0.564361572265625,0.2092437744140625,-0.8048553466796875,0.0
06/01/202101:23:17.172,-0.565582275390625,0.2095794677734375,-0.803863525390625,0.0
06/01/202101:23:17.182,-0.5652008056640625,0.2106170654296875,-0.801788330078125,0.0
06/01/202101:23:17.192,-0.5655059814453125,0.211212158203125,-0.801422119140625,0.0
06/01/202101:23:17.201,-0.565399169921875,0.210174560546875,-0.80206298828125,0.0
06/01/202101:23:17.218,-0.5661468505859375,0.209442138671875,-0.8019256591796875,0.0
06/01/202101:23:17.221,-0.566986083984375,0.2091827392578125,-0.8031463623046875,0.0
06/01/202101:23:17.232,-0.567657470703125,0.21044921875,-0.80364990234375,0.0
06/01/202101:23:17.242,-0.5667877197265625,0.212127685546875,-0.8032989501953125,0.0
06/01/202101:23:17.252,-0.5649566650390625,0.2121734619140625,-0.8042144775390625,0.0
06/01/202101:23:17.262,-0.5644073486328125,0.211212158203125,-0.804473876953125,0.0
06/01/202101:23:17.281,-0.5633697509765625,0.2118377685546875,-0.804443359375,0.0
06/01/202101:23:17.282,-0.563140869140625,0.2120513916015625,-0.8056182861328125,0.0
06/01/202101:23:17.292,-0.5628204345703125,0.2122802734375,-0.804107666015625,0.0
06/01/202101:23:17.302,-0.562164306640625,0.2126922607421875,-0.805023193359375,0.0
06/01/202101:23:17.311,-0.5618896484375,0.212493896484375,-0.804901123046875,0.0
06/01/202101:23:17.322,-0.561492919921875,0.2112884521484375,-0.80560302734375,0.0
06/01/202101:23:17.346,-0.5605621337890625,0.2119140625,-0.8048858642578125,0.0
06/01/202101:23:17.351,-0.561859130859375,0.212188720703125,-0.8047943115234375,0.0
06/01/202101:23:17.362,-0.5633697509765625,0.2134857177734375,-0.8042755126953125,0.0
06/01/202101:23:17.372,-0.5632476806640625,0.2138214111328125,-0.8046417236328125,0.0
06/01/202101:23:17.382,-0.5638580322265625,0.2137451171875,-0.80462646484375,0.0
06/01/202101:23:17.400,-0.564361572265625,0.213043212890625,-0.80413818359375,0.0
06/01/202101:23:17.401,-0.5647430419921875,0.2118072509765625,-0.8033905029296875,0.0
06/01/202101:23:17.411,-0.5654449462890625,0.211273193359375,-0.8046722412109375,0.0
06/01/202101:23:17.422,-0.56494140625,0.210662841796875,-0.8041229248046875,0.0
06/01/202101:23:17.431,-0.56463623046875,0.2109832763671875,-0.802215576171875,0.0
06/01/202101:23:17.441,-0.564361572265625,0.2109527587890625,-0.8033599853515625,0.0
06/01/202101:23:17.460,-0.5645294189453125,0.2109222412109375,-0.8036346435546875,0.0
06/01/202101:23:17.461,-0.564605712890625,0.2099609375,-0.8047943115234375,0.0
06/01/202101:23:17.472,-0.56494140625,0.211151123046875,-0.804107666015625,0.0
06/01/202101:23:17.481,-0.5649566650390625,0.21173095703125,-0.8038330078125,0.0
06/01/202101:23:17.491,-0.5656890869140625,0.21075439453125,-0.8034515380859375,0.0
06/01/202101:23:17.502,-0.5662078857421875,0.210845947265625,-0.8040313720703125,0.0
06/01/202101:23:17.523,-0.566070556640625,0.21240234375,-0.8042449951171875,0.0
06/01/202101:23:17.524,-0.5666046142578125,0.21240234375,-0.802978515625,0.0
06/01/202101:23:17.531,-0.5661773681640625,0.2123565673828125,-0.8027496337890625,0.0
06/01/202101:23:17.541,-0.5647430419921875,0.2131805419921875,-0.802154541015625,0.0
06/01/202101:23:17.551,-0.5640716552734375,0.2130126953125,-0.801971435546875,0.0
06/01/202101:23:17.561,-0.5645751953125,0.2122039794921875,-0.802154541015625,0.0
06/01/202101:23:17.581,-0.5642852783203125,0.210662841796875,-0.802520751953125,0.0
06/01/202101:23:17.591,-0.565032958984375,0.210052490234375,-0.80535888671875,0.0
06/01/202101:23:17.601,-0.565185546875,0.21038818359375,-0.8062744140625,0.0
06/01/202101:23:17.611,-0.565216064453125,0.2109222412109375,-0.8062591552734375,0.0
06/01/202101:23:17.621,-0.5636138916015625,0.211090087890625,-0.805572509765625,0.0
06/01/202101:23:17.639,-0.5629119873046875,0.21221923828125,-0.803375244140625,0.0
06/01/202101:23:17.641,-0.5615081787109375,0.210601806640625,-0.8028717041015625,0.0
06/01/202101:23:17.652,-0.5618743896484375,0.2091522216796875,-0.803253173828125,0.0
06/01/202101:23:17.661,-0.5621795654296875,0.2095489501953125,-0.803863525390625,0.0
06/01/202101:23:17.671,-0.5625457763671875,0.2091827392578125,-0.8035888671875,0.0
06/01/202101:23:17.681,-0.5620574951171875,0.2097930908203125,-0.804718017578125,0.0
06/01/202101:23:17.699,-0.5634918212890625,0.211822509765625,-0.805816650390625,0.0
06/01/202101:23:17.701,-0.5637969970703125,0.213409423828125,-0.805816650390625,0.0
06/01/202101:23:17.711,-0.5623016357421875,0.2139739990234375,-0.803863525390625,0.0
06/01/202101:23:17.721,-0.562713623046875,0.21417236328125,-0.8033294677734375,0.0
06/01/202101:23:17.731,-0.562957763671875,0.2144317626953125,-0.80377197265625,0.0
06/01/202101:23:17.741,-0.5628814697265625,0.2139434814453125,-0.8029937744140625,0.0
06/01/202101:23:17.762,-0.5634918212890625,0.2127685546875,-0.8028411865234375,0.0
06/01/202101:23:17.771,-0.5645294189453125,0.213897705078125,-0.8048858642578125,0.0
06/01/202101:23:17.781,-0.564239501953125,0.2132110595703125,-0.8050994873046875,0.0
06/01/202101:23:17.791,-0.5637359619140625,0.2135467529296875,-0.804229736328125,0.0
06/01/202101:23:17.801,-0.5641937255859375,0.212005615234375,-0.8033905029296875,0.0
06/01/202101:23:17.820,-0.5627899169921875,0.21075439453125,-0.8026123046875,0.0
06/01/202101:23:17.821,-0.5620269775390625,0.210205078125,-0.8043670654296875,0.0
06/01/202101:23:17.831,-0.56298828125,0.2091064453125,-0.8051910400390625,0.0
06/01/202101:23:17.841,-0.5634918212890625,0.2092437744140625,-0.80438232421875,0.0
06/01/202101:23:17.851,-0.56475830078125,0.209930419921875,-0.804840087890625,0.0
06/01/202101:23:17.861,-0.5651092529296875,0.210113525390625,-0.804779052734375,0.0
06/01/202101:23:17.879,-0.5649261474609375,0.208892822265625,-0.8031463623046875,0.0
06/01/202101:23:17.881,-0.56549072265625,0.2098388671875,-0.8026123046875,0.0
06/01/202101:23:17.891,-0.5653533935546875,0.21038818359375,-0.8017578125,0.0
06/01/202101:23:17.901,-0.56573486328125,0.2104034423828125,-0.8027801513671875,0.0
06/01/202101:23:17.911,-0.56719970703125,0.210845947265625,-0.8033905029296875,0.0
06/01/202101:23:17.921,-0.5677032470703125,0.211517333984375,-0.8024139404296875,0.0
06/01/202101:23:17.942,-0.567291259765625,0.2125091552734375,-0.8018646240234375,0.0
06/01/202101:23:17.943,-0.567626953125,0.2108154296875,-0.8021087646484375,0.0
06/01/202101:23:17.951,-0.5673828125,0.209930419921875,-0.802825927734375,0.0
06/01/202101:23:17.961,-0.566925048828125,0.21044921875,-0.8040008544921875,0.0
06/01/202101:23:17.971,-0.5660552978515625,0.2113800048828125,-0.8035430908203125,0.0
06/01/202101:23:17.981,-0.565155029296875,0.2120513916015625,-0.8035736083984375,0.0
06/01/202101:23:17.997,-0.5645751953125,0.2124786376953125,-0.803131103515625,0.0
06/01/202101:23:18.001,-0.563812255859375,0.2137908935546875,-0.8038330078125,0.0
06/01/202101:23:18.011,-0.564117431640625,0.21258544921875,-0.8038482666015625,0.0
06/01/202101:23:18.021,-0.563385009765625,0.2130126953125,-0.80474853515625,0.0
06/01/202101:23:18.031,-0.5635986328125,0.21405029296875,-0.8055572509765625,0.0
06/01/202101:23:18.041,-0.5641326904296875,0.213531494140625,-0.8044281005859375,0.0
06/01/202101:23:18.064,-0.5637969970703125,0.2135009765625,-0.804718017578125,0.0
06/01/202101:23:18.071,-0.5629730224609375,0.212158203125,-0.80401611328125,0.0
06/01/202101:23:18.081,-0.5619964599609375,0.2118988037109375,-0.8036651611328125,0.0
06/01/202101:23:18.091,-0.561859130859375,0.2109527587890625,-0.804656982421875,0.0
06/01/202101:23:18.101,-0.5626373291015625,0.2108612060546875,-0.8048858642578125,0.0
06/01/202101:23:18.122,-0.56341552734375,0.212158203125,-0.8041229248046875,0.0
06/01/202101:23:18.131,-0.562591552734375,0.2108306884765625,-0.8061676025390625,0.0
06/01/202101:23:18.141,-0.5611572265625,0.2108154296875,-0.805633544921875,0.0
06/01/202101:23:18.151,-0.5620880126953125,0.210662841796875,-0.8059234619140625,0.0
06/01/202101:23:18.161,-0.5619354248046875,0.2099456787109375,-0.805267333984375,0.0
06/01/202101:23:18.179,-0.5624542236328125,0.2103271484375,-0.8036651611328125,0.0
06/01/202101:23:18.181,-0.5627593994140625,0.2108001708984375,-0.8045806884765625,0.0
06/01/202101:23:18.191,-0.5636138916015625,0.2111358642578125,-0.805206298828125,0.0
06/01/202101:23:18.201,-0.56494140625,0.2114410400390625,-0.8045196533203125,0.0
06/01/202101:23:18.211,-0.5654144287109375,0.2112884521484375,-0.8034210205078125,0.0
06/01/202101:23:18.221,-0.5659332275390625,0.2119903564453125,-0.80242919921875,0.0
06/01/202101:23:18.239,-0.565582275390625,0.211395263671875,-0.802764892578125,0.0
06/01/202101:23:18.241,-0.5648956298828125,0.2117462158203125,-0.802642822265625,0.0
06/01/202101:23:18.251,-0.5644989013671875,0.2120513916015625,-0.8027801513671875,0.0
06/01/202101:23:18.261,-0.5647125244140625,0.2130584716796875,-0.8030548095703125,0.0
06/01/202101:23:18.271,-0.5655364990234375,0.213897705078125,-0.8026885986328125,0.0
06/01/202101:23:18.281,-0.565521240234375,0.2144927978515625,-0.8027496337890625,0.0
06/01/202101:23:18.304,-0.565643310546875,0.214202880859375,-0.8033294677734375,0.0
06/01/202101:23:18.311,-0.56573486328125,0.2120513916015625,-0.803070068359375,0.0
06/01/202101:23:18.321,-0.565826416015625,0.2097625732421875,-0.8034515380859375,0.0
06/01/202101:23:18.331,-0.5659332275390625,0.208831787109375,-0.805084228515625,0.0
06/01/202101:23:18.341,-0.5662078857421875,0.2098846435546875,-0.80621337890625,0.0
06/01/202101:23:18.361,-0.5654754638671875,0.20928955078125,-0.804718017578125,0.0
06/01/202101:23:18.362,-0.563720703125,0.209747314453125,-0.8043975830078125,0.0
06/01/202101:23:18.371,-0.562103271484375,0.209320068359375,-0.803436279296875,0.0
06/01/202101:23:18.381,-0.561431884765625,0.2098846435546875,-0.803619384765625,0.0
06/01/202101:23:18.391,-0.5614471435546875,0.2094268798828125,-0.805419921875,0.0
06/01/202101:23:18.401,-0.5619964599609375,0.209197998046875,-0.805633544921875,0.0
06/01/202101:23:18.422,-0.562652587890625,0.209136962890625,-0.803802490234375,0.0
06/01/202101:23:18.423,-0.563873291015625,0.208892822265625,-0.8033905029296875,0.0
06/01/202101:23:18.431,-0.5645599365234375,0.210540771484375,-0.803985595703125,0.0
06/01/202101:23:18.441,-0.56427001953125,0.211456298828125,-0.8043212890625,0.0
06/01/202101:23:18.451,-0.56451416015625,0.2129058837890625,-0.80413818359375,0.0
06/01/202101:23:18.461,-0.56427001953125,0.21429443359375,-0.8035430908203125,0.0
06/01/202101:23:18.484,-0.5655364990234375,0.215545654296875,-0.8017578125,0.0
06/01/202101:23:18.490,-0.563507080078125,0.214630126953125,-0.8024444580078125,0.0
06/01/202101:23:18.500,-0.563262939453125,0.2143402099609375,-0.8036651611328125,0.0
06/01/202101:23:18.511,-0.564422607421875,0.21429443359375,-0.8052978515625,0.0
06/01/202101:23:18.521,-0.5645294189453125,0.2155609130859375,-0.805938720703125,0.0
06/01/202101:23:18.542,-0.565093994140625,0.214813232421875,-0.80523681640625,0.0
06/01/202101:23:18.551,-0.5628509521484375,0.2133941650390625,-0.8029327392578125,0.0
06/01/202101:23:18.561,-0.5631103515625,0.2113494873046875,-0.8022308349609375,0.0
06/01/202101:23:18.571,-0.5630035400390625,0.2086944580078125,-0.80328369140625,0.0
06/01/202101:23:18.580,-0.5635986328125,0.2079620361328125,-0.8048553466796875,0.0
06/01/202101:23:18.602,-0.5643768310546875,0.20855712890625,-0.8042144775390625,0.0
06/01/202101:23:18.603,-0.56524658203125,0.2088623046875,-0.805145263671875,0.0
06/01/202101:23:18.610,-0.5650787353515625,0.2090911865234375,-0.8049468994140625,0.0
06/01/202101:23:18.621,-0.564666748046875,0.2103729248046875,-0.803741455078125,0.0
06/01/202101:23:18.630,-0.5648651123046875,0.2097320556640625,-0.8030853271484375,0.0
06/01/202101:23:18.641,-0.5649871826171875,0.2082366943359375,-0.800689697265625,0.0
06/01/202101:23:18.662,-0.5646820068359375,0.2078094482421875,-0.8032989501953125,0.0
06/01/202101:23:18.671,-0.5659637451171875,0.2093353271484375,-0.8032073974609375,0.0
06/01/202101:23:18.680,-0.56597900390625,0.2099609375,-0.8031768798828125,0.0
06/01/202101:23:18.690,-0.56646728515625,0.2110595703125,-0.8019561767578125,0.0
06/01/202101:23:18.701,-0.5665740966796875,0.21148681640625,-0.8031768798828125,0.0
06/01/202101:23:18.724,-0.56597900390625,0.21197509765625,-0.804779052734375,0.0
06/01/202101:23:18.730,-0.5641632080078125,0.2128143310546875,-0.8036041259765625,0.0
06/01/202101:23:18.740,-0.5629730224609375,0.2142333984375,-0.8033905029296875,0.0
06/01/202101:23:18.750,-0.5623779296875,0.213836669921875,-0.8036041259765625,0.0
06/01/202101:23:18.760,-0.561431884765625,0.214141845703125,-0.803955078125,0.0
06/01/202101:23:18.782,-0.5612335205078125,0.2131195068359375,-0.8058624267578125,0.0
06/01/202101:23:18.790,-0.561553955078125,0.213226318359375,-0.8049774169921875,0.0
06/01/202101:23:18.801,-0.5621490478515625,0.211761474609375,-0.804840087890625,0.0
06/01/202101:23:18.810,-0.56298828125,0.2127685546875,-0.8040924072265625,0.0
06/01/202101:23:18.820,-0.5644073486328125,0.2130126953125,-0.8041229248046875,0.0
06/01/202101:23:18.839,-0.5641632080078125,0.2125244140625,-0.8037261962890625,0.0
06/01/202101:23:18.840,-0.5642242431640625,0.2137603759765625,-0.802734375,0.0
06/01/202101:23:18.851,-0.563995361328125,0.2124786376953125,-0.803741455078125,0.0
06/01/202101:23:18.860,-0.563812255859375,0.2129364013671875,-0.80255126953125,0.0
06/01/202101:23:18.870,-0.5634918212890625,0.21136474609375,-0.80303955078125,0.0
06/01/202101:23:18.880,-0.563018798828125,0.210418701171875,-0.8049774169921875,0.0
06/01/202101:23:18.902,-0.56396484375,0.2098541259765625,-0.8058929443359375,0.0
06/01/202101:23:18.910,-0.56414794921875,0.211151123046875,-0.804229736328125,0.0
06/01/202101:23:18.920,-0.563934326171875,0.2112579345703125,-0.8050384521484375,0.0
06/01/202101:23:18.930,-0.564361572265625,0.21051025390625,-0.8043365478515625,0.0
06/01/202101:23:18.940,-0.5644073486328125,0.209716796875,-0.8046875,0.0
06/01/202101:23:18.963,-0.5648040771484375,0.2087249755859375,-0.8030853271484375,0.0
06/01/202101:23:18.970,-0.5654754638671875,0.2117156982421875,-0.8031463623046875,0.0
06/01/202101:23:18.980,-0.5656280517578125,0.212371826171875,-0.80230712890625,0.0
06/01/202101:23:18.990,-0.5655364990234375,0.2127685546875,-0.8027801513671875,0.0
06/01/202101:23:19.000,-0.565673828125,0.2137298583984375,-0.8031768798828125,0.0
06/01/202101:23:19.021,-0.5663299560546875,0.2142333984375,-0.8014068603515625,0.0
06/01/202101:23:19.022,-0.567230224609375,0.2139129638671875,-0.8015594482421875,0.0
06/01/202101:23:19.030,-0.5662689208984375,0.214324951171875,-0.8021697998046875,0.0
06/01/202101:23:19.040,-0.5666351318359375,0.212799072265625,-0.8029632568359375,0.0
06/01/202101:23:19.050,-0.5657958984375,0.2119293212890625,-0.8026580810546875,0.0
06/01/202101:23:19.060,-0.5648193359375,0.2114105224609375,-0.803741455078125,0.0
06/01/202101:23:19.083,-0.564544677734375,0.21038818359375,-0.8053741455078125,0.0
06/01/202101:23:19.090,-0.5624237060546875,0.2117767333984375,-0.80615234375,0.0
06/01/202101:23:19.100,-0.5616607666015625,0.211090087890625,-0.80572509765625,0.0
06/01/202101:23:19.110,-0.560455322265625,0.2098541259765625,-0.805328369140625,0.0
06/01/202101:23:19.120,-0.5590667724609375,0.2098388671875,-0.805145263671875,0.0
06/01/202101:23:19.141,-0.56072998046875,0.209381103515625,-0.8047943115234375,0.0
06/01/202101:23:19.151,-0.5623931884765625,0.2109375,-0.80377197265625,0.0
06/01/202101:23:19.160,-0.5637664794921875,0.2106170654296875,-0.8034515380859375,0.0
06/01/202101:23:19.170,-0.5644683837890625,0.2110595703125,-0.804168701171875,0.0
06/01/202101:23:19.180,-0.5652618408203125,0.211639404296875,-0.804595947265625,0.0
06/01/202101:23:19.203,-0.5649261474609375,0.2123565673828125,-0.8034210205078125,0.0
06/01/202101:23:19.210,-0.5654754638671875,0.2134552001953125,-0.8026275634765625,0.0
06/01/202101:23:19.221,-0.5645751953125,0.2131195068359375,-0.8023529052734375,0.0
06/01/202101:23:19.230,-0.56494140625,0.2142181396484375,-0.80352783203125,0.0
06/01/202101:23:19.240,-0.56463623046875,0.2161102294921875,-0.8038482666015625,0.0
06/01/202101:23:19.261,-0.564453125,0.2161865234375,-0.8044281005859375,0.0
06/01/202101:23:19.270,-0.5643310546875,0.2149505615234375,-0.8030853271484375,0.0
06/01/202101:23:19.280,-0.564239501953125,0.2135772705078125,-0.8032379150390625,0.0
06/01/202101:23:19.290,-0.563201904296875,0.2128753662109375,-0.803558349609375,0.0
06/01/202101:23:19.301,-0.562103271484375,0.211334228515625,-0.80352783203125,0.0
06/01/202101:23:19.322,-0.5623626708984375,0.2111968994140625,-0.803375244140625,0.0
06/01/202101:23:19.330,-0.5622100830078125,0.2107391357421875,-0.8035125732421875,0.0
06/01/202101:23:19.340,-0.562957763671875,0.2103729248046875,-0.8040924072265625,0.0
06/01/202101:23:19.350,-0.564117431640625,0.210693359375,-0.804290771484375,0.0
06/01/202101:23:19.360,-0.5646209716796875,0.2110137939453125,-0.80474853515625,0.0
06/01/202101:23:19.383,-0.564178466796875,0.21197509765625,-0.804779052734375,0.0
06/01/202101:23:19.390,-0.564056396484375,0.2106781005859375,-0.8022613525390625,0.0
06/01/202101:23:19.400,-0.56292724609375,0.21112060546875,-0.801666259765625,0.0
06/01/202101:23:19.410,-0.5627899169921875,0.209625244140625,-0.8025970458984375,0.0
06/01/202101:23:19.420,-0.562530517578125,0.210357666015625,-0.8034210205078125,0.0
06/01/202101:23:19.441,-0.564208984375,0.21063232421875,-0.8040771484375,0.0
06/01/202101:23:19.450,-0.5642242431640625,0.2113800048828125,-0.805389404296875,0.0
06/01/202101:23:19.460,-0.5640869140625,0.2121429443359375,-0.8048858642578125,0.0
06/01/202101:23:19.470,-0.562957763671875,0.212066650390625,-0.8047027587890625,0.0
06/01/202101:23:19.480,-0.5626678466796875,0.213409423828125,-0.804107666015625,0.0
06/01/202101:23:19.504,-0.56231689453125,0.2140350341796875,-0.804412841796875,0.0
06/01/202101:23:19.510,-0.56365966796875,0.21246337890625,-0.8045501708984375,0.0
06/01/202101:23:19.520,-0.5638580322265625,0.2127532958984375,-0.8042755126953125,0.0
06/01/202101:23:19.530,-0.564453125,0.2139434814453125,-0.80499267578125,0.0
06/01/202101:23:19.540,-0.5649261474609375,0.2135772705078125,-0.80462646484375,0.0
06/01/202101:23:19.563,-0.564605712890625,0.213623046875,-0.80419921875,0.0
06/01/202101:23:19.570,-0.56451416015625,0.213714599609375,-0.8023223876953125,0.0
06/01/202101:23:19.580,-0.56439208984375,0.2136383056640625,-0.802215576171875,0.0
06/01/202101:23:19.590,-0.5640411376953125,0.212371826171875,-0.8030853271484375,0.0
06/01/202101:23:19.600,-0.5652008056640625,0.212188720703125,-0.803680419921875,0.0
06/01/202101:23:19.620,-0.5653533935546875,0.2130126953125,-0.8033447265625,0.0
06/01/202101:23:19.621,-0.5655670166015625,0.2137603759765625,-0.8027191162109375,0.0
06/01/202101:23:19.630,-0.564910888671875,0.212554931640625,-0.8034515380859375,0.0
06/01/202101:23:19.640,-0.5635223388671875,0.2117462158203125,-0.804840087890625,0.0
06/01/202101:23:19.650,-0.5633544921875,0.211029052734375,-0.8042755126953125,0.0
06/01/202101:23:19.660,-0.5634918212890625,0.2103118896484375,-0.80487060546875,0.0
06/01/202101:23:19.684,-0.5628509521484375,0.210784912109375,-0.804779052734375,0.0
06/01/202101:23:19.690,-0.5625457763671875,0.2099609375,-0.80413818359375,0.0
06/01/202101:23:19.700,-0.56243896484375,0.2110137939453125,-0.805694580078125,0.0
06/01/202101:23:19.710,-0.5630035400390625,0.211669921875,-0.8048248291015625,0.0
06/01/202101:23:19.720,-0.5642547607421875,0.2126312255859375,-0.8027191162109375,0.0
06/01/202101:23:19.741,-0.56488037109375,0.213897705078125,-0.8016357421875,0.0
06/01/202101:23:19.750,-0.56549072265625,0.2103271484375,-0.8028411865234375,0.0
06/01/202101:23:19.760,-0.565704345703125,0.20947265625,-0.8037567138671875,0.0
06/01/202101:23:19.770,-0.566986083984375,0.208709716796875,-0.80364990234375,0.0
06/01/202101:23:19.780,-0.567626953125,0.210693359375,-0.804901123046875,0.0
06/01/202101:23:19.799,-0.5655975341796875,0.211090087890625,-0.8036041259765625,0.0
06/01/202101:23:19.800,-0.564208984375,0.2121429443359375,-0.802978515625,0.0
06/01/202101:23:19.810,-0.56219482421875,0.212158203125,-0.8020172119140625,0.0
06/01/202101:23:19.820,-0.562896728515625,0.21221923828125,-0.802764892578125,0.0
06/01/202101:23:19.830,-0.5639190673828125,0.21142578125,-0.8039398193359375,0.0
06/01/202101:23:19.840,-0.5639801025390625,0.2114105224609375,-0.8036346435546875,0.0
06/01/202101:23:19.865,-0.5645904541015625,0.21160888671875,-0.803314208984375,0.0
06/01/202101:23:19.866,-0.564849853515625,0.212890625,-0.803466796875,0.0
06/01/202101:23:19.869,-0.5652618408203125,0.2144927978515625,-0.8035430908203125,0.0
06/01/202101:23:19.879,-0.5650482177734375,0.2150421142578125,-0.8022613525390625,0.0
06/01/202101:23:19.890,-0.5645904541015625,0.21514892578125,-0.8020782470703125,0.0
06/01/202101:23:19.900,-0.564208984375,0.214935302734375,-0.8020477294921875,0.0
06/01/202101:23:19.922,-0.564849853515625,0.214874267578125,-0.80279541015625,0.0
06/01/202101:23:19.929,-0.565216064453125,0.214263916015625,-0.8039398193359375,0.0
06/01/202101:23:19.940,-0.56512451171875,0.2149658203125,-0.80548095703125,0.0
06/01/202101:23:19.950,-0.564666748046875,0.2144622802734375,-0.804534912109375,0.0
06/01/202101:23:19.960,-0.564117431640625,0.2142181396484375,-0.8040313720703125,0.0
06/01/202101:23:19.984,-0.5630035400390625,0.2137298583984375,-0.8047637939453125,0.0
06/01/202101:23:19.989,-0.5628509521484375,0.20977783203125,-0.802825927734375,0.0
06/01/202101:23:20.000,-0.56195068359375,0.2074127197265625,-0.8031005859375,0.0
06/01/202101:23:20.010,-0.5631866455078125,0.207244873046875,-0.8041839599609375,0.0
06/01/202101:23:20.020,-0.5631561279296875,0.209014892578125,-0.8041534423828125,0.0
06/01/202101:23:20.041,-0.563507080078125,0.2102203369140625,-0.8050994873046875,0.0
06/01/202101:23:20.049,-0.563262939453125,0.209869384765625,-0.8038787841796875,0.0
06/01/202101:23:20.060,-0.563385009765625,0.2093505859375,-0.803436279296875,0.0
06/01/202101:23:20.070,-0.564239501953125,0.2084808349609375,-0.803192138671875,0.0
06/01/202101:23:20.079,-0.5643310546875,0.2086944580078125,-0.803253173828125,0.0
06/01/202101:23:20.101,-0.56512451171875,0.208465576171875,-0.8033447265625,0.0
06/01/202101:23:20.102,-0.5658111572265625,0.2096710205078125,-0.8026885986328125,0.0
06/01/202101:23:20.110,-0.5663604736328125,0.2111663818359375,-0.8035430908203125,0.0
06/01/202101:23:20.120,-0.5665435791015625,0.2117919921875,-0.802886962890625,0.0
06/01/202101:23:20.130,-0.5659942626953125,0.2115325927734375,-0.8022613525390625,0.0
06/01/202101:23:20.140,-0.5655517578125,0.211639404296875,-0.8030853271484375,0.0
06/01/202101:23:20.166,-0.564605712890625,0.2117919921875,-0.803497314453125,0.0
06/01/202101:23:20.169,-0.5649566650390625,0.2133941650390625,-0.80267333984375,0.0
06/01/202101:23:20.180,-0.5639801025390625,0.21392822265625,-0.8040008544921875,0.0
06/01/202101:23:20.190,-0.56353759765625,0.2141571044921875,-0.804962158203125,0.0
06/01/202101:23:20.199,-0.5632781982421875,0.21343994140625,-0.8046417236328125,0.0
06/01/202101:23:20.222,-0.5625457763671875,0.2146453857421875,-0.803863525390625,0.0
06/01/202101:23:20.230,-0.563934326171875,0.211639404296875,-0.8038330078125,0.0
06/01/202101:23:20.240,-0.564056396484375,0.211822509765625,-0.802398681640625,0.0
06/01/202101:23:20.250,-0.563446044921875,0.2118377685546875,-0.8026123046875,0.0
06/01/202101:23:20.259,-0.5637664794921875,0.210845947265625,-0.80352783203125,0.0
06/01/202101:23:20.271,-0.56365966796875,0.2108917236328125,-0.8040313720703125,0.0
06/01/202101:23:20.283,-0.563507080078125,0.2103729248046875,-0.8045196533203125,0.0
06/01/202101:23:20.289,-0.5646514892578125,0.209869384765625,-0.8050537109375,0.0
06/01/202101:23:20.300,-0.5645751953125,0.210540771484375,-0.8037567138671875,0.0
06/01/202101:23:20.309,-0.56427001953125,0.211151123046875,-0.804901123046875,0.0
06/01/202101:23:20.320,-0.5646820068359375,0.21051025390625,-0.804962158203125,0.0
06/01/202101:23:20.343,-0.5656280517578125,0.2112274169921875,-0.805694580078125,0.0
06/01/202101:23:20.349,-0.5645294189453125,0.2114105224609375,-0.802581787109375,0.0
06/01/202101:23:20.359,-0.5643157958984375,0.2115936279296875,-0.8027191162109375,0.0
06/01/202101:23:20.369,-0.5642852783203125,0.211669921875,-0.8026123046875,0.0
06/01/202101:23:20.379,-0.5648651123046875,0.2107391357421875,-0.8036956787109375,0.0
06/01/202101:23:20.401,-0.5645751953125,0.21142578125,-0.804412841796875,0.0
06/01/202101:23:20.402,-0.5645599365234375,0.212921142578125,-0.8040618896484375,0.0
06/01/202101:23:20.409,-0.5657806396484375,0.214599609375,-0.8042144775390625,0.0
06/01/202101:23:20.420,-0.566162109375,0.2152862548828125,-0.8020782470703125,0.0
06/01/202101:23:20.429,-0.56597900390625,0.2151947021484375,-0.802093505859375,0.0
06/01/202101:23:20.439,-0.5648345947265625,0.2124481201171875,-0.8021392822265625,0.0
06/01/202101:23:20.465,-0.5654144287109375,0.2107696533203125,-0.802886962890625,0.0
06/01/202101:23:20.469,-0.567047119140625,0.2103271484375,-0.806060791015625,0.0
06/01/202101:23:20.479,-0.5660858154296875,0.2107696533203125,-0.8053131103515625,0.0
06/01/202101:23:20.489,-0.565185546875,0.2107086181640625,-0.8050994873046875,0.0
06/01/202101:23:20.500,-0.5640411376953125,0.2116546630859375,-0.803253173828125,0.0
06/01/202101:23:20.520,-0.563720703125,0.2105865478515625,-0.8030853271484375,0.0
06/01/202101:23:20.521,-0.5634307861328125,0.2104644775390625,-0.8023681640625,0.0
06/01/202101:23:20.529,-0.5643768310546875,0.210357666015625,-0.802215576171875,0.0
06/01/202101:23:20.539,-0.56353759765625,0.209197998046875,-0.8031158447265625,0.0
06/01/202101:23:20.549,-0.5640411376953125,0.210357666015625,-0.803466796875,0.0
06/01/202101:23:20.559,-0.564422607421875,0.2129058837890625,-0.804443359375,0.0
06/01/202101:23:20.583,-0.5634002685546875,0.213958740234375,-0.805267333984375,0.0
06/01/202101:23:20.589,-0.5635528564453125,0.21380615234375,-0.803955078125,0.0
06/01/202101:23:20.600,-0.5637969970703125,0.213592529296875,-0.8032989501953125,0.0
06/01/202101:23:20.609,-0.5638885498046875,0.2140960693359375,-0.8023223876953125,0.0
06/01/202101:23:20.619,-0.5643463134765625,0.214813232421875,-0.80224609375,0.0
06/01/202101:23:20.641,-0.5643768310546875,0.215545654296875,-0.8042449951171875,0.0
06/01/202101:23:20.649,-0.5656890869140625,0.2141876220703125,-0.8044281005859375,0.0
06/01/202101:23:20.659,-0.5638580322265625,0.2138824462890625,-0.803802490234375,0.0
06/01/202101:23:20.669,-0.5641632080078125,0.2119598388671875,-0.8033294677734375,0.0
06/01/202101:23:20.679,-0.56396484375,0.2106475830078125,-0.8035736083984375,0.0
06/01/202101:23:20.700,-0.5637359619140625,0.209716796875,-0.8030853271484375,0.0
06/01/202101:23:20.701,-0.5636138916015625,0.2091064453125,-0.80462646484375,0.0
06/01/202101:23:20.709,-0.5634918212890625,0.2086181640625,-0.80462646484375,0.0
06/01/202101:23:20.719,-0.5642242431640625,0.20941162109375,-0.80303955078125,0.0
06/01/202101:23:20.729,-0.5639801025390625,0.2097625732421875,-0.8040313720703125,0.0
06/01/202101:23:20.739,-0.5647125244140625,0.20904541015625,-0.8033599853515625,0.0
06/01/202101:23:20.763,-0.564971923828125,0.2096099853515625,-0.8035888671875,0.0
06/01/202101:23:20.764,-0.5641937255859375,0.2084808349609375,-0.8038177490234375,0.0
06/01/202101:23:20.769,-0.56494140625,0.209197998046875,-0.8040924072265625,0.0
06/01/202101:23:20.779,-0.5654144287109375,0.2103271484375,-0.8028717041015625,0.0
06/01/202101:23:20.789,-0.565582275390625,0.2108306884765625,-0.8031158447265625,0.0
06/01/202101:23:20.799,-0.56573486328125,0.2106170654296875,-0.8017425537109375,0.0
06/01/202101:23:20.823,-0.5676422119140625,0.210662841796875,-0.8016357421875,0.0
06/01/202101:23:20.824,-0.566558837890625,0.2115020751953125,-0.802398681640625,0.0
06/01/202101:23:20.829,-0.5662994384765625,0.2118377685546875,-0.802642822265625,0.0
06/01/202101:23:20.839,-0.56646728515625,0.21282958984375,-0.80255126953125,0.0
06/01/202101:23:20.849,-0.566741943359375,0.213592529296875,-0.803497314453125,0.0
06/01/202101:23:20.859,-0.56573486328125,0.2130889892578125,-0.80328369140625,0.0
06/01/202101:23:20.879,-0.5638275146484375,0.2130279541015625,-0.8043365478515625,0.0
06/01/202101:23:20.880,-0.5645751953125,0.213287353515625,-0.8053131103515625,0.0
06/01/202101:23:20.889,-0.56439208984375,0.2140655517578125,-0.8057861328125,0.0
06/01/202101:23:20.899,-0.5633697509765625,0.21466064453125,-0.8044281005859375,0.0
06/01/202101:23:20.909,-0.56365966796875,0.2137908935546875,-0.8027191162109375,0.0
06/01/202101:23:20.919,-0.563323974609375,0.2134246826171875,-0.8035736083984375,0.0
06/01/202101:23:20.942,-0.5632171630859375,0.2122650146484375,-0.8033905029296875,0.0
06/01/202101:23:20.949,-0.564453125,0.21099853515625,-0.8026580810546875,0.0
06/01/202101:23:20.959,-0.5651092529296875,0.2111358642578125,-0.8032379150390625,0.0
06/01/202101:23:20.969,-0.56549072265625,0.2115478515625,-0.803741455078125,0.0
06/01/202101:23:20.979,-0.5656585693359375,0.211151123046875,-0.8046112060546875,0.0
06/01/202101:23:20.990,-0.565277099609375,0.211456298828125,-0.80364990234375,0.0
06/01/202101:23:21.005,-0.565155029296875,0.212188720703125,-0.803558349609375,0.0
06/01/202101:23:21.009,-0.564849853515625,0.2122650146484375,-0.8039093017578125,0.0
06/01/202101:23:21.020,-0.5643463134765625,0.2113494873046875,-0.8039398193359375,0.0
06/01/202101:23:21.029,-0.5641326904296875,0.2110595703125,-0.80401611328125,0.0
06/01/202101:23:21.039,-0.56414794921875,0.2111053466796875,-0.8040313720703125,0.0
06/01/202101:23:21.051,-0.5643463134765625,0.2113189697265625,-0.8034515380859375,0.0
06/01/202101:23:21.063,-0.5643768310546875,0.2109527587890625,-0.8029632568359375,0.0
06/01/202101:23:21.069,-0.564605712890625,0.2105712890625,-0.803192138671875,0.0
06/01/202101:23:21.079,-0.5650177001953125,0.2120361328125,-0.8042755126953125,0.0
06/01/202101:23:21.089,-0.5647430419921875,0.21337890625,-0.803131103515625,0.0
06/01/202101:23:21.099,-0.5657806396484375,0.215423583984375,-0.8032684326171875,0.0
06/01/202101:23:21.121,-0.56524658203125,0.2146453857421875,-0.800689697265625,0.0
06/01/202101:23:21.122,-0.565185546875,0.21270751953125,-0.8012237548828125,0.0
06/01/202101:23:21.129,-0.565948486328125,0.2119140625,-0.8018951416015625,0.0
06/01/202101:23:21.139,-0.565582275390625,0.2097015380859375,-0.802947998046875,0.0
06/01/202101:23:21.149,-0.5668182373046875,0.2095947265625,-0.8057098388671875,0.0
06/01/202101:23:21.159,-0.5672454833984375,0.2108154296875,-0.8058319091796875,0.0
06/01/202101:23:21.180,-0.56622314453125,0.212249755859375,-0.8052215576171875,0.0
06/01/202101:23:21.189,-0.563232421875,0.2108001708984375,-0.8026580810546875,0.0
06/01/202101:23:21.199,-0.5628814697265625,0.210845947265625,-0.8019561767578125,0.0
06/01/202101:23:21.209,-0.56219482421875,0.210113525390625,-0.80303955078125,0.0
06/01/202101:23:21.219,-0.5632476806640625,0.20965576171875,-0.8028411865234375,0.0
06/01/202101:23:21.242,-0.5639495849609375,0.209716796875,-0.8022003173828125,0.0
06/01/202101:23:21.243,-0.5651702880859375,0.21112060546875,-0.8033905029296875,0.0
06/01/202101:23:21.249,-0.564422607421875,0.212432861328125,-0.80499267578125,0.0
06/01/202101:23:21.259,-0.564910888671875,0.2125244140625,-0.80401611328125,0.0
06/01/202101:23:21.269,-0.5650634765625,0.2131500244140625,-0.8038177490234375,0.0
06/01/202101:23:21.279,-0.5643768310546875,0.2136688232421875,-0.803558349609375,0.0
06/01/202101:23:21.300,-0.5644683837890625,0.213836669921875,-0.801910400390625,0.0
06/01/202101:23:21.301,-0.563934326171875,0.213897705078125,-0.802520751953125,0.0
06/01/202101:23:21.309,-0.5634307861328125,0.21405029296875,-0.8040008544921875,0.0
06/01/202101:23:21.319,-0.56439208984375,0.21484375,-0.8044891357421875,0.0
06/01/202101:23:21.329,-0.5648193359375,0.2145233154296875,-0.8053436279296875,0.0
06/01/202101:23:21.339,-0.56414794921875,0.215362548828125,-0.804962158203125,0.0
06/01/202101:23:21.361,-0.56353759765625,0.214019775390625,-0.80438232421875,0.0
06/01/202101:23:21.369,-0.5624237060546875,0.21258544921875,-0.8017120361328125,0.0
06/01/202101:23:21.379,-0.5621185302734375,0.2116241455078125,-0.80230712890625,0.0
06/01/202101:23:21.388,-0.563323974609375,0.210418701171875,-0.8036651611328125,0.0
06/01/202101:23:21.399,-0.5631256103515625,0.209259033203125,-0.8040771484375,0.0
06/01/202101:23:21.422,-0.5633544921875,0.2093658447265625,-0.8052215576171875,0.0
06/01/202101:23:21.429,-0.5655517578125,0.2098541259765625,-0.80419921875,0.0
06/01/202101:23:21.439,-0.5659332275390625,0.210845947265625,-0.8037872314453125,0.0
06/01/202101:23:21.449,-0.56561279296875,0.2104949951171875,-0.8035736083984375,0.0
06/01/202101:23:21.459,-0.5646820068359375,0.210418701171875,-0.80181884765625,0.0
06/01/202101:23:21.485,-0.56500244140625,0.208892822265625,-0.8005218505859375,0.0
06/01/202101:23:21.488,-0.5669708251953125,0.2095489501953125,-0.8016204833984375,0.0
06/01/202101:23:21.499,-0.568695068359375,0.2090911865234375,-0.8026275634765625,0.0
06/01/202101:23:21.508,-0.5679779052734375,0.2108001708984375,-0.8036346435546875,0.0
06/01/202101:23:21.519,-0.5676727294921875,0.2107391357421875,-0.8034210205078125,0.0
06/01/202101:23:21.541,-0.5656890869140625,0.2122344970703125,-0.8037109375,0.0
06/01/202101:23:21.549,-0.5641326904296875,0.2126617431640625,-0.80303955078125,0.0
06/01/202101:23:21.558,-0.5635528564453125,0.2117767333984375,-0.8033599853515625,0.0
06/01/202101:23:21.568,-0.5629730224609375,0.21246337890625,-0.8038482666015625,0.0
06/01/202101:23:21.578,-0.5633544921875,0.2129058837890625,-0.8040924072265625,0.0
06/01/202101:23:21.604,-0.5644073486328125,0.2117919921875,-0.8044891357421875,0.0
06/01/202101:23:21.608,-0.564697265625,0.2132720947265625,-0.8039398193359375,0.0
06/01/202101:23:21.618,-0.5640106201171875,0.2129669189453125,-0.8033599853515625,0.0
06/01/202101:23:21.629,-0.563018798828125,0.2122802734375,-0.80279541015625,0.0
06/01/202101:23:21.638,-0.5626220703125,0.21234130859375,-0.8032379150390625,0.0
06/01/202101:23:21.661,-0.5632781982421875,0.21160888671875,-0.803863525390625,0.0
06/01/202101:23:21.662,-0.5622711181640625,0.211395263671875,-0.8047027587890625,0.0
06/01/202101:23:21.668,-0.5633544921875,0.2122039794921875,-0.806121826171875,0.0
06/01/202101:23:21.679,-0.564727783203125,0.2130584716796875,-0.8053131103515625,0.0
06/01/202101:23:21.688,-0.564971923828125,0.212982177734375,-0.8047943115234375,0.0
06/01/202101:23:21.699,-0.5637054443359375,0.213653564453125,-0.8050689697265625,0.0
06/01/202101:23:21.721,-0.5630340576171875,0.2123260498046875,-0.8039398193359375,0.0
06/01/202101:23:21.728,-0.5626220703125,0.2112884521484375,-0.80438232421875,0.0
06/01/202101:23:21.739,-0.5631256103515625,0.2105712890625,-0.8033599853515625,0.0
06/01/202101:23:21.748,-0.5649871826171875,0.21148681640625,-0.8045196533203125,0.0
06/01/202101:23:21.758,-0.5650787353515625,0.211456298828125,-0.80474853515625,0.0
06/01/202101:23:21.779,-0.565673828125,0.2138519287109375,-0.804931640625,0.0
06/01/202101:23:21.780,-0.5657196044921875,0.2138671875,-0.8038330078125,0.0
06/01/202101:23:21.788,-0.564849853515625,0.2140045166015625,-0.802520751953125,0.0
06/01/202101:23:21.798,-0.5640411376953125,0.2137603759765625,-0.801361083984375,0.0
06/01/202101:23:21.808,-0.56427001953125,0.21136474609375,-0.802093505859375,0.0
06/01/202101:23:21.818,-0.56475830078125,0.2090606689453125,-0.8027801513671875,0.0
06/01/202101:23:21.846,-0.5652008056640625,0.2086639404296875,-0.8049163818359375,0.0
06/01/202101:23:21.848,-0.5664215087890625,0.2104339599609375,-0.808319091796875,0.0
06/01/202101:23:21.858,-0.5655975341796875,0.2121734619140625,-0.8055877685546875,0.0
06/01/202101:23:21.868,-0.5641021728515625,0.2109222412109375,-0.8038177490234375,0.0
06/01/202101:23:21.878,-0.56243896484375,0.211151123046875,-0.80108642578125,0.0
06/01/202101:23:21.900,-0.5629119873046875,0.2098541259765625,-0.8028564453125,0.0
06/01/202101:23:21.908,-0.5640869140625,0.210479736328125,-0.8018035888671875,0.0
06/01/202101:23:21.919,-0.565460205078125,0.2132568359375,-0.8033447265625,0.0
06/01/202101:23:21.928,-0.566802978515625,0.2147979736328125,-0.8032684326171875,0.0
06/01/202101:23:21.939,-0.565185546875,0.2146453857421875,-0.80328369140625,0.0
06/01/202101:23:21.963,-0.5643157958984375,0.215728759765625,-0.80352783203125,0.0
06/01/202101:23:21.964,-0.56365966796875,0.21649169921875,-0.804168701171875,0.0
06/01/202101:23:21.968,-0.5634307861328125,0.2155609130859375,-0.8033447265625,0.0
06/01/202101:23:21.979,-0.5627899169921875,0.215240478515625,-0.8036346435546875,0.0
06/01/202101:23:21.988,-0.562835693359375,0.21527099609375,-0.8036651611328125,0.0
06/01/202101:23:21.999,-0.5634765625,0.214599609375,-0.8043670654296875,0.0
06/01/202101:23:22.025,-0.5627593994140625,0.21514892578125,-0.806304931640625,0.0
06/01/202101:23:22.028,-0.56304931640625,0.2135772705078125,-0.8054962158203125,0.0
06/01/202101:23:22.039,-0.5631256103515625,0.212066650390625,-0.805023193359375,0.0
06/01/202101:23:22.048,-0.562469482421875,0.21087646484375,-0.802825927734375,0.0
06/01/202101:23:22.058,-0.5614013671875,0.209716796875,-0.8039093017578125,0.0
06/01/202101:23:22.082,-0.5621795654296875,0.2082366943359375,-0.8051910400390625,0.0
06/01/202101:23:22.088,-0.5638275146484375,0.21014404296875,-0.804473876953125,0.0
06/01/202101:23:22.098,-0.5651702880859375,0.2116546630859375,-0.805572509765625,0.0
06/01/202101:23:22.108,-0.5647125244140625,0.2126617431640625,-0.80499267578125,0.0
06/01/202101:23:22.118,-0.5633087158203125,0.21148681640625,-0.80364990234375,0.0
06/01/202101:23:22.140,-0.5630950927734375,0.2115325927734375,-0.8024139404296875,0.0
06/01/202101:23:22.141,-0.563323974609375,0.2103118896484375,-0.8021240234375,0.0
06/01/202101:23:22.148,-0.5640869140625,0.2093353271484375,-0.8014068603515625,0.0
06/01/202101:23:22.158,-0.565704345703125,0.2081756591796875,-0.8024139404296875,0.0
06/01/202101:23:22.168,-0.566009521484375,0.2088165283203125,-0.8019866943359375,0.0
06/01/202101:23:22.178,-0.5655670166015625,0.210693359375,-0.803253173828125,0.0
06/01/202101:23:22.204,-0.5660552978515625,0.212066650390625,-0.8028411865234375,0.0
06/01/202101:23:22.205,-0.5665435791015625,0.2114105224609375,-0.8030548095703125,0.0
06/01/202101:23:22.208,-0.5656280517578125,0.212066650390625,-0.8043670654296875,0.0
06/01/202101:23:22.219,-0.565460205078125,0.211700439453125,-0.8030853271484375,0.0
06/01/202101:23:22.228,-0.5654449462890625,0.2119293212890625,-0.80426025390625,0.0
06/01/202101:23:22.238,-0.5651397705078125,0.213104248046875,-0.803619384765625,0.0
06/01/202101:23:22.250,-0.5649871826171875,0.2142486572265625,-0.8047027587890625,0.0
06/01/202101:23:22.261,-0.564208984375,0.2146759033203125,-0.8035430908203125,0.0
06/01/202101:23:22.268,-0.563873291015625,0.2150115966796875,-0.8037109375,0.0
06/01/202101:23:22.278,-0.56317138671875,0.2138824462890625,-0.803436279296875,0.0
06/01/202101:23:22.288,-0.5619964599609375,0.212554931640625,-0.8021697998046875,0.0
06/01/202101:23:22.298,-0.5628509521484375,0.213531494140625,-0.8017425537109375,0.0
06/01/202101:23:22.324,-0.5636749267578125,0.214630126953125,-0.8020782470703125,0.0
06/01/202101:23:22.325,-0.5642852783203125,0.2132720947265625,-0.8029327392578125,0.0
06/01/202101:23:22.328,-0.564361572265625,0.2128753662109375,-0.8032073974609375,0.0
06/01/202101:23:22.339,-0.564605712890625,0.21295166015625,-0.8036346435546875,0.0
06/01/202101:23:22.348,-0.5632171630859375,0.2129974365234375,-0.804901123046875,0.0
06/01/202101:23:22.358,-0.56378173828125,0.2119293212890625,-0.8043212890625,0.0
06/01/202101:23:22.382,-0.56329345703125,0.212249755859375,-0.8055572509765625,0.0
06/01/202101:23:22.388,-0.5625457763671875,0.2110137939453125,-0.8053741455078125,0.0
06/01/202101:23:22.398,-0.562042236328125,0.2108917236328125,-0.805877685546875,0.0
06/01/202101:23:22.408,-0.563873291015625,0.21221923828125,-0.8055267333984375,0.0
06/01/202101:23:22.418,-0.5641326904296875,0.2122955322265625,-0.8056640625,0.0
06/01/202101:23:22.439,-0.563446044921875,0.2119598388671875,-0.8039703369140625,0.0
06/01/202101:23:22.440,-0.5641632080078125,0.2117156982421875,-0.803680419921875,0.0
06/01/202101:23:22.448,-0.5644989013671875,0.2122344970703125,-0.8028717041015625,0.0
06/01/202101:23:22.458,-0.5651092529296875,0.2127227783203125,-0.80206298828125,0.0
06/01/202101:23:22.468,-0.5646514892578125,0.2125091552734375,-0.8009185791015625,0.0
06/01/202101:23:22.478,-0.5657806396484375,0.2135162353515625,-0.8017425537109375,0.0
06/01/202101:23:22.502,-0.5651702880859375,0.212982177734375,-0.8026123046875,0.0
06/01/202101:23:22.503,-0.5644073486328125,0.210723876953125,-0.802490234375,0.0
06/01/202101:23:22.508,-0.56536865234375,0.2101593017578125,-0.8045654296875,0.0
06/01/202101:23:22.518,-0.5655059814453125,0.2105712890625,-0.805999755859375,0.0
06/01/202101:23:22.528,-0.564727783203125,0.2100677490234375,-0.8072967529296875,0.0
06/01/202101:23:22.538,-0.5643768310546875,0.2105560302734375,-0.8049163818359375,0.0
06/01/202101:23:22.563,-0.5632171630859375,0.2106781005859375,-0.803680419921875,0.0
06/01/202101:23:22.568,-0.56298828125,0.210479736328125,-0.8037872314453125,0.0
06/01/202101:23:22.578,-0.5639190673828125,0.210479736328125,-0.8026885986328125,0.0
06/01/202101:23:22.588,-0.563873291015625,0.2098846435546875,-0.8027191162109375,0.0
06/01/202101:23:22.598,-0.563873291015625,0.2115478515625,-0.8026123046875,0.0
06/01/202101:23:22.622,-0.5650634765625,0.2124481201171875,-0.8020172119140625,0.0
06/01/202101:23:22.623,-0.56451416015625,0.2138671875,-0.8022308349609375,0.0
06/01/202101:23:22.628,-0.5642242431640625,0.2145843505859375,-0.80377197265625,0.0
06/01/202101:23:22.638,-0.564605712890625,0.215179443359375,-0.8031463623046875,0.0
06/01/202101:23:22.648,-0.5657501220703125,0.214569091796875,-0.8029632568359375,0.0
06/01/202101:23:22.658,-0.5665740966796875,0.2134552001953125,-0.8026275634765625,0.0
06/01/202101:23:22.681,-0.5648345947265625,0.213531494140625,-0.80450439453125,0.0
06/01/202101:23:22.688,-0.564208984375,0.2139892578125,-0.8050537109375,0.0
06/01/202101:23:22.698,-0.5631256103515625,0.212982177734375,-0.80364990234375,0.0
06/01/202101:23:22.708,-0.5630340576171875,0.2125701904296875,-0.8042755126953125,0.0
06/01/202101:23:22.718,-0.56268310546875,0.2132110595703125,-0.8028106689453125,0.0
06/01/202101:23:22.743,-0.56329345703125,0.2119293212890625,-0.80291748046875,0.0
06/01/202101:23:22.747,-0.5639801025390625,0.2091217041015625,-0.8037872314453125,0.0
06/01/202101:23:22.758,-0.563690185546875,0.209564208984375,-0.8042449951171875,0.0
06/01/202101:23:22.768,-0.5644378662109375,0.210052490234375,-0.803924560546875,0.0
06/01/202101:23:22.778,-0.5648193359375,0.2110137939453125,-0.8045196533203125,0.0
06/01/202101:23:22.802,-0.5635833740234375,0.210479736328125,-0.8040313720703125,0.0
06/01/202101:23:22.807,-0.5658416748046875,0.20941162109375,-0.802764892578125,0.0
06/01/202101:23:22.818,-0.565216064453125,0.20977783203125,-0.801788330078125,0.0
06/01/202101:23:22.828,-0.5652313232421875,0.209747314453125,-0.8026275634765625,0.0
06/01/202101:23:22.837,-0.5664825439453125,0.2099456787109375,-0.802581787109375,0.0
06/01/202101:23:22.860,-0.56719970703125,0.211944580078125,-0.8015899658203125,0.0
06/01/202101:23:22.868,-0.56646728515625,0.2110748291015625,-0.801300048828125,0.0
06/01/202101:23:22.878,-0.5663604736328125,0.2105865478515625,-0.8025665283203125,0.0
06/01/202101:23:22.888,-0.5654144287109375,0.2099609375,-0.8038482666015625,0.0
06/01/202101:23:22.898,-0.5646820068359375,0.21087646484375,-0.8039703369140625,0.0
06/01/202101:23:22.923,-0.563751220703125,0.212554931640625,-0.8044281005859375,0.0
06/01/202101:23:22.928,-0.5634307861328125,0.214508056640625,-0.80438232421875,0.0
06/01/202101:23:22.938,-0.5634918212890625,0.21380615234375,-0.8040618896484375,0.0
06/01/202101:23:22.948,-0.5635986328125,0.2142333984375,-0.8037261962890625,0.0
06/01/202101:23:22.958,-0.563323974609375,0.2124176025390625,-0.8048095703125,0.0
06/01/202101:23:22.971,-0.5633087158203125,0.2130126953125,-0.80487060546875,0.0
06/01/202101:23:22.984,-0.5639190673828125,0.212371826171875,-0.8046722412109375,0.0
06/01/202101:23:22.987,-0.5643768310546875,0.2119903564453125,-0.804779052734375,0.0
06/01/202101:23:22.998,-0.5635223388671875,0.2131195068359375,-0.802276611328125,0.0
06/01/202101:23:23.008,-0.563385009765625,0.212738037109375,-0.801971435546875,0.0
06/01/202101:23:23.018,-0.5642852783203125,0.2125091552734375,-0.8033905029296875,0.0
06/01/202101:23:23.042,-0.5639495849609375,0.2114715576171875,-0.8034210205078125,0.0
06/01/202101:23:23.047,-0.5654296875,0.2129364013671875,-0.8038787841796875,0.0
06/01/202101:23:23.058,-0.565521240234375,0.213409423828125,-0.8047637939453125,0.0
06/01/202101:23:23.068,-0.5638427734375,0.211517333984375,-0.8038787841796875,0.0
06/01/202101:23:23.078,-0.5624542236328125,0.2109832763671875,-0.8048858642578125,0.0
06/01/202101:23:23.091,-0.5629119873046875,0.2099609375,-0.805145263671875,0.0
06/01/202101:23:23.102,-0.5628204345703125,0.2100677490234375,-0.8040924072265625,0.0
06/01/202101:23:23.107,-0.563201904296875,0.2100067138671875,-0.8037261962890625,0.0
06/01/202101:23:23.117,-0.5638427734375,0.2100830078125,-0.8033599853515625,0.0
06/01/202101:23:23.128,-0.56573486328125,0.2103729248046875,-0.8037261962890625,0.0
06/01/202101:23:23.138,-0.56512451171875,0.2104034423828125,-0.8050537109375,0.0
06/01/202101:23:23.162,-0.5653533935546875,0.2107696533203125,-0.804595947265625,0.0
06/01/202101:23:23.167,-0.565155029296875,0.2107696533203125,-0.8013458251953125,0.0
06/01/202101:23:23.178,-0.5654754638671875,0.210296630859375,-0.8010711669921875,0.0
06/01/202101:23:23.187,-0.5648956298828125,0.20941162109375,-0.8018798828125,0.0
06/01/202101:23:23.198,-0.56475830078125,0.208587646484375,-0.8034210205078125,0.0
06/01/202101:23:23.224,-0.5667724609375,0.210845947265625,-0.805999755859375,0.0
06/01/202101:23:23.225,-0.5696258544921875,0.2123870849609375,-0.80615234375,0.0
06/01/202101:23:23.227,-0.5682830810546875,0.2144317626953125,-0.80535888671875,0.0
06/01/202101:23:23.238,-0.5681610107421875,0.2147369384765625,-0.8020782470703125,0.0
06/01/202101:23:23.248,-0.565643310546875,0.2147979736328125,-0.8011322021484375,0.0
06/01/202101:23:23.258,-0.564727783203125,0.2146759033203125,-0.800537109375,0.0
06/01/202101:23:23.281,-0.5644989013671875,0.2136077880859375,-0.8008575439453125,0.0
06/01/202101:23:23.288,-0.565277099609375,0.2139129638671875,-0.8016815185546875,0.0
06/01/202101:23:23.298,-0.5657958984375,0.2159881591796875,-0.8027801513671875,0.0
06/01/202101:23:23.308,-0.56591796875,0.216705322265625,-0.804473876953125,0.0
06/01/202101:23:23.318,-0.56646728515625,0.2170562744140625,-0.80413818359375,0.0
06/01/202101:23:23.345,-0.5664520263671875,0.217559814453125,-0.802764892578125,0.0
06/01/202101:23:23.347,-0.5648193359375,0.21563720703125,-0.802276611328125,0.0
06/01/202101:23:23.358,-0.56536865234375,0.2139129638671875,-0.8023681640625,0.0
06/01/202101:23:23.368,-0.5641937255859375,0.2125396728515625,-0.802978515625,0.0
06/01/202101:23:23.377,-0.5645904541015625,0.212615966796875,-0.8033447265625,0.0
06/01/202101:23:23.402,-0.5656890869140625,0.21148681640625,-0.805419921875,0.0
06/01/202101:23:23.407,-0.5637359619140625,0.2102508544921875,-0.8036346435546875,0.0
06/01/202101:23:23.417,-0.5628814697265625,0.209259033203125,-0.803863525390625,0.0
06/01/202101:23:23.427,-0.5619964599609375,0.208282470703125,-0.8031005859375,0.0
06/01/202101:23:23.437,-0.5617828369140625,0.20751953125,-0.8038177490234375,0.0
06/01/202101:23:23.460,-0.5625762939453125,0.2062835693359375,-0.8051300048828125,0.0
06/01/202101:23:23.467,-0.5635833740234375,0.2060699462890625,-0.804046630859375,0.0
06/01/202101:23:23.477,-0.5641632080078125,0.206390380859375,-0.8057403564453125,0.0
06/01/202101:23:23.487,-0.564361572265625,0.2085723876953125,-0.8053131103515625,0.0
06/01/202101:23:23.497,-0.563934326171875,0.2094573974609375,-0.8037261962890625,0.0
06/01/202101:23:23.523,-0.5632781982421875,0.2102203369140625,-0.803192138671875,0.0
06/01/202101:23:23.527,-0.562164306640625,0.2108612060546875,-0.8021087646484375,0.0
06/01/202101:23:23.537,-0.5629730224609375,0.211181640625,-0.80218505859375,0.0
06/01/202101:23:23.547,-0.5643768310546875,0.211517333984375,-0.803131103515625,0.0
06/01/202101:23:23.557,-0.56494140625,0.21173095703125,-0.80389404296875,0.0
06/01/202101:23:23.581,-0.5662994384765625,0.21331787109375,-0.8041229248046875,0.0
06/01/202101:23:23.587,-0.5658721923828125,0.2124786376953125,-0.80352783203125,0.0
06/01/202101:23:23.597,-0.5641937255859375,0.2126617431640625,-0.803558349609375,0.0
06/01/202101:23:23.607,-0.5634307861328125,0.213226318359375,-0.80322265625,0.0
06/01/202101:23:23.617,-0.563507080078125,0.21319580078125,-0.8038482666015625,0.0
06/01/202101:23:23.640,-0.5634918212890625,0.212921142578125,-0.803741455078125,0.0
06/01/202101:23:23.641,-0.564422607421875,0.2134246826171875,-0.803466796875,0.0
06/01/202101:23:23.647,-0.5640106201171875,0.2139892578125,-0.8041534423828125,0.0
06/01/202101:23:23.657,-0.564483642578125,0.212921142578125,-0.8045806884765625,0.0
06/01/202101:23:23.667,-0.5644378662109375,0.213165283203125,-0.80316162109375,0.0
06/01/202101:23:23.677,-0.5648040771484375,0.2127532958984375,-0.80291748046875,0.0
06/01/202101:23:23.701,-0.56500244140625,0.2115478515625,-0.802825927734375,0.0
06/01/202101:23:23.707,-0.564666748046875,0.212890625,-0.801300048828125,0.0
06/01/202101:23:23.717,-0.565887451171875,0.212799072265625,-0.8020172119140625,0.0
06/01/202101:23:23.728,-0.5659027099609375,0.2135772705078125,-0.8020782470703125,0.0
06/01/202101:23:23.737,-0.56634521484375,0.21209716796875,-0.8032684326171875,0.0
06/01/202101:23:23.760,-0.56597900390625,0.2112274169921875,-0.802886962890625,0.0
06/01/202101:23:23.767,-0.5668182373046875,0.2128143310546875,-0.803558349609375,0.0
06/01/202101:23:23.777,-0.567657470703125,0.2121734619140625,-0.8030853271484375,0.0
06/01/202101:23:23.787,-0.5673980712890625,0.2119293212890625,-0.8014984130859375,0.0
06/01/202101:23:23.797,-0.56695556640625,0.2109375,-0.802398681640625,0.0
06/01/202101:23:23.824,-0.5663604736328125,0.21075439453125,-0.8037567138671875,0.0
06/01/202101:23:23.827,-0.5664825439453125,0.210906982421875,-0.8032073974609375,0.0
06/01/202101:23:23.837,-0.56646728515625,0.211639404296875,-0.8039398193359375,0.0
06/01/202101:23:23.847,-0.5662841796875,0.2122650146484375,-0.8035125732421875,0.0
06/01/202101:23:23.857,-0.5664520263671875,0.2135162353515625,-0.802947998046875,0.0
06/01/202101:23:23.885,-0.5670013427734375,0.2136993408203125,-0.8021697998046875,0.0
06/01/202101:23:23.886,-0.566070556640625,0.2144775390625,-0.800689697265625,0.0
06/01/202101:23:23.887,-0.5662841796875,0.2141265869140625,-0.800323486328125,0.0
06/01/202101:23:23.897,-0.5651702880859375,0.2121734619140625,-0.80181884765625,0.0
06/01/202101:23:23.907,-0.56500244140625,0.21197509765625,-0.800872802734375,0.0
06/01/202101:23:23.917,-0.564910888671875,0.21014404296875,-0.8038330078125,0.0
06/01/202101:23:23.940,-0.5657501220703125,0.210418701171875,-0.807098388671875,0.0
06/01/202101:23:23.947,-0.563079833984375,0.212615966796875,-0.8063201904296875,0.0
06/01/202101:23:23.957,-0.5619354248046875,0.2127227783203125,-0.8037567138671875,0.0
06/01/202101:23:23.967,-0.5609893798828125,0.212188720703125,-0.8028411865234375,0.0
06/01/202101:23:23.977,-0.561553955078125,0.2112274169921875,-0.8028106689453125,0.0
06/01/202101:23:24.003,-0.5621337890625,0.20947265625,-0.8031158447265625,0.0
06/01/202101:23:24.007,-0.5648956298828125,0.2097015380859375,-0.80328369140625,0.0
06/01/202101:23:24.017,-0.564056396484375,0.2113189697265625,-0.8045806884765625,0.0
06/01/202101:23:24.027,-0.565155029296875,0.212310791015625,-0.8053131103515625,0.0
06/01/202101:23:24.037,-0.564605712890625,0.2122650146484375,-0.803985595703125,0.0
06/01/202101:23:24.065,-0.5649566650390625,0.2120208740234375,-0.803497314453125,0.0
06/01/202101:23:24.066,-0.5649261474609375,0.2132110595703125,-0.801483154296875,0.0
06/01/202101:23:24.067,-0.565032958984375,0.2139892578125,-0.8018798828125,0.0
06/01/202101:23:24.077,-0.565887451171875,0.2147064208984375,-0.8025054931640625,0.0
06/01/202101:23:24.087,-0.56591796875,0.214935302734375,-0.8022308349609375,0.0
06/01/202101:23:24.097,-0.5651397705078125,0.2142181396484375,-0.8026580810546875,0.0
06/01/202101:23:24.122,-0.5662994384765625,0.21368408203125,-0.80322265625,0.0
06/01/202101:23:24.127,-0.565399169921875,0.212890625,-0.8043975830078125,0.0
06/01/202101:23:24.137,-0.5644378662109375,0.2115936279296875,-0.8036041259765625,0.0
06/01/202101:23:24.147,-0.563873291015625,0.21142578125,-0.801971435546875,0.0
06/01/202101:23:24.157,-0.5630645751953125,0.21136474609375,-0.8025665283203125,0.0
06/01/202101:23:24.170,-0.56341552734375,0.2103729248046875,-0.8028564453125,0.0
06/01/202101:23:24.183,-0.5641632080078125,0.2099761962890625,-0.803924560546875,0.0
06/01/202101:23:24.187,-0.564849853515625,0.20953369140625,-0.803314208984375,0.0
06/01/202101:23:24.197,-0.5656280517578125,0.2100830078125,-0.8042144775390625,0.0
06/01/202101:23:24.207,-0.565643310546875,0.210357666015625,-0.804534912109375,0.0
06/01/202101:23:24.217,-0.5647125244140625,0.210418701171875,-0.8050994873046875,0.0
06/01/202101:23:24.241,-0.56414794921875,0.2103729248046875,-0.8028106689453125,0.0
06/01/202101:23:24.246,-0.5643768310546875,0.2090911865234375,-0.802886962890625,0.0
06/01/202101:23:24.257,-0.5648345947265625,0.20947265625,-0.803009033203125,0.0
06/01/202101:23:24.267,-0.5650177001953125,0.20977783203125,-0.8030853271484375,0.0
06/01/202101:23:24.277,-0.5655517578125,0.210418701171875,-0.803070068359375,0.0
06/01/202101:23:24.303,-0.5664825439453125,0.211456298828125,-0.803741455078125,0.0
06/01/202101:23:24.304,-0.566192626953125,0.2125244140625,-0.80352783203125,0.0
06/01/202101:23:24.307,-0.565521240234375,0.21246337890625,-0.803131103515625,0.0
06/01/202101:23:24.317,-0.5655670166015625,0.2122802734375,-0.8038330078125,0.0
